"src_subject_id","start_time","end_time","browser","index","first_half_probabilities","second_half_probabilities","deck_color","deck_position","deck_probabilities","deck_contingencies","response_color","key_press","response_position","response_probability","reward_type","trial_type","rt","reward_tally","exclusion_reason"
"ACPIVPK8OL94P","Tue Sep 29 2020 12:52:30 GMT-0700 (Pacific Daylight Time)","Tue Sep 29 2020 13:00:37 GMT-0700 (Pacific Daylight Time)","Mozilla/5.0 (Windows NT 6.3; Win64; x64) AppleWebKit/537.36 (KHTML, like Gecko) Chrome/84.0.4147.125 Safari/537.36",1,"[0.9, 0.5, 0.1]","[0.8, 0.4, 0.2]","[u'red', u'black', u'blue']","[u'left', u'middle', u'right']","[0.9, 0.5, 0.1]","[u'medium', u'low', u'high']","black",50,"middle","low","False","False",1350,-50,NA
"ACPIVPK8OL94P","Tue Sep 29 2020 12:52:30 GMT-0700 (Pacific Daylight Time)","Tue Sep 29 2020 13:00:37 GMT-0700 (Pacific Daylight Time)","Mozilla/5.0 (Windows NT 6.3; Win64; x64) AppleWebKit/537.36 (KHTML, like Gecko) Chrome/84.0.4147.125 Safari/537.36",2,"[0.9, 0.5, 0.1]","[0.8, 0.4, 0.2]","[u'red', u'black', u'blue']","[u'left', u'middle', u'right']","[0.9, 0.5, 0.1]","[u'medium', u'low', u'high']","blue",51,"right","high","True","False",318,50,NA
"ACPIVPK8OL94P","Tue Sep 29 2020 12:52:30 GMT-0700 (Pacific Daylight Time)","Tue Sep 29 2020 13:00:37 GMT-0700 (Pacific Daylight Time)","Mozilla/5.0 (Windows NT 6.3; Win64; x64) AppleWebKit/537.36 (KHTML, like Gecko) Chrome/84.0.4147.125 Safari/537.36",3,"[0.9, 0.5, 0.1]","[0.8, 0.4, 0.2]","[u'red', u'black', u'blue']","[u'left', u'middle', u'right']","[0.9, 0.5, 0.1]","[u'medium', u'low', u'high']","blue",51,"right","high","True","False",713,150,NA
"ACPIVPK8OL94P","Tue Sep 29 2020 12:52:30 GMT-0700 (Pacific Daylight Time)","Tue Sep 29 2020 13:00:37 GMT-0700 (Pacific Daylight Time)","Mozilla/5.0 (Windows NT 6.3; Win64; x64) AppleWebKit/537.36 (KHTML, like Gecko) Chrome/84.0.4147.125 Safari/537.36",4,"[0.9, 0.5, 0.1]","[0.8, 0.4, 0.2]","[u'red', u'black', u'blue']","[u'left', u'middle', u'right']","[0.9, 0.5, 0.1]","[u'medium', u'low', u'high']","black",50,"middle","low","False","False",832,100,NA
"ACPIVPK8OL94P","Tue Sep 29 2020 12:52:30 GMT-0700 (Pacific Daylight Time)","Tue Sep 29 2020 13:00:37 GMT-0700 (Pacific Daylight Time)","Mozilla/5.0 (Windows NT 6.3; Win64; x64) AppleWebKit/537.36 (KHTML, like Gecko) Chrome/84.0.4147.125 Safari/537.36",5,"[0.9, 0.5, 0.1]","[0.8, 0.4, 0.2]","[u'red', u'black', u'blue']","[u'left', u'middle', u'right']","[0.9, 0.5, 0.1]","[u'medium', u'low', u'high']","black",50,"middle","low","False","False",899,50,NA
"ACPIVPK8OL94P","Tue Sep 29 2020 12:52:30 GMT-0700 (Pacific Daylight Time)","Tue Sep 29 2020 13:00:37 GMT-0700 (Pacific Daylight Time)","Mozilla/5.0 (Windows NT 6.3; Win64; x64) AppleWebKit/537.36 (KHTML, like Gecko) Chrome/84.0.4147.125 Safari/537.36",6,"[0.9, 0.5, 0.1]","[0.8, 0.4, 0.2]","[u'red', u'black', u'blue']","[u'left', u'middle', u'right']","[0.9, 0.5, 0.1]","[u'medium', u'low', u'high']","red",49,"left","medium","False","False",1000,0,NA
"ACPIVPK8OL94P","Tue Sep 29 2020 12:52:30 GMT-0700 (Pacific Daylight Time)","Tue Sep 29 2020 13:00:37 GMT-0700 (Pacific Daylight Time)","Mozilla/5.0 (Windows NT 6.3; Win64; x64) AppleWebKit/537.36 (KHTML, like Gecko) Chrome/84.0.4147.125 Safari/537.36",7,"[0.9, 0.5, 0.1]","[0.8, 0.4, 0.2]","[u'red', u'black', u'blue']","[u'left', u'middle', u'right']","[0.9, 0.5, 0.1]","[u'medium', u'low', u'high']","blue",51,"right","high","True","False",1008,100,NA
"ACPIVPK8OL94P","Tue Sep 29 2020 12:52:30 GMT-0700 (Pacific Daylight Time)","Tue Sep 29 2020 13:00:37 GMT-0700 (Pacific Daylight Time)","Mozilla/5.0 (Windows NT 6.3; Win64; x64) AppleWebKit/537.36 (KHTML, like Gecko) Chrome/84.0.4147.125 Safari/537.36",8,"[0.9, 0.5, 0.1]","[0.8, 0.4, 0.2]","[u'red', u'black', u'blue']","[u'left', u'middle', u'right']","[0.9, 0.5, 0.1]","[u'medium', u'low', u'high']","blue",51,"right","high","True","False",238,200,NA
"ACPIVPK8OL94P","Tue Sep 29 2020 12:52:30 GMT-0700 (Pacific Daylight Time)","Tue Sep 29 2020 13:00:37 GMT-0700 (Pacific Daylight Time)","Mozilla/5.0 (Windows NT 6.3; Win64; x64) AppleWebKit/537.36 (KHTML, like Gecko) Chrome/84.0.4147.125 Safari/537.36",9,"[0.9, 0.5, 0.1]","[0.8, 0.4, 0.2]","[u'red', u'black', u'blue']","[u'left', u'middle', u'right']","[0.9, 0.5, 0.1]","[u'medium', u'low', u'high']","blue",51,"right","high","True","False",686,300,NA
"ACPIVPK8OL94P","Tue Sep 29 2020 12:52:30 GMT-0700 (Pacific Daylight Time)","Tue Sep 29 2020 13:00:37 GMT-0700 (Pacific Daylight Time)","Mozilla/5.0 (Windows NT 6.3; Win64; x64) AppleWebKit/537.36 (KHTML, like Gecko) Chrome/84.0.4147.125 Safari/537.36",10,"[0.9, 0.5, 0.1]","[0.8, 0.4, 0.2]","[u'red', u'black', u'blue']","[u'left', u'middle', u'right']","[0.9, 0.5, 0.1]","[u'medium', u'low', u'high']","blue",51,"right","high","True","False",446,400,NA
"ACPIVPK8OL94P","Tue Sep 29 2020 12:52:30 GMT-0700 (Pacific Daylight Time)","Tue Sep 29 2020 13:00:37 GMT-0700 (Pacific Daylight Time)","Mozilla/5.0 (Windows NT 6.3; Win64; x64) AppleWebKit/537.36 (KHTML, like Gecko) Chrome/84.0.4147.125 Safari/537.36",11,"[0.9, 0.5, 0.1]","[0.8, 0.4, 0.2]","[u'red', u'black', u'blue']","[u'left', u'middle', u'right']","[0.9, 0.5, 0.1]","[u'medium', u'low', u'high']","blue",51,"right","high","True","False",641,500,NA
"ACPIVPK8OL94P","Tue Sep 29 2020 12:52:30 GMT-0700 (Pacific Daylight Time)","Tue Sep 29 2020 13:00:37 GMT-0700 (Pacific Daylight Time)","Mozilla/5.0 (Windows NT 6.3; Win64; x64) AppleWebKit/537.36 (KHTML, like Gecko) Chrome/84.0.4147.125 Safari/537.36",12,"[0.9, 0.5, 0.1]","[0.8, 0.4, 0.2]","[u'red', u'black', u'blue']","[u'left', u'middle', u'right']","[0.9, 0.5, 0.1]","[u'medium', u'low', u'high']","blue",51,"right","high","True","False",593,600,NA
"ACPIVPK8OL94P","Tue Sep 29 2020 12:52:30 GMT-0700 (Pacific Daylight Time)","Tue Sep 29 2020 13:00:37 GMT-0700 (Pacific Daylight Time)","Mozilla/5.0 (Windows NT 6.3; Win64; x64) AppleWebKit/537.36 (KHTML, like Gecko) Chrome/84.0.4147.125 Safari/537.36",13,"[0.9, 0.5, 0.1]","[0.8, 0.4, 0.2]","[u'red', u'black', u'blue']","[u'left', u'middle', u'right']","[0.9, 0.5, 0.1]","[u'medium', u'low', u'high']","blue",51,"right","high","True","False",522,700,NA
"ACPIVPK8OL94P","Tue Sep 29 2020 12:52:30 GMT-0700 (Pacific Daylight Time)","Tue Sep 29 2020 13:00:37 GMT-0700 (Pacific Daylight Time)","Mozilla/5.0 (Windows NT 6.3; Win64; x64) AppleWebKit/537.36 (KHTML, like Gecko) Chrome/84.0.4147.125 Safari/537.36",14,"[0.9, 0.5, 0.1]","[0.8, 0.4, 0.2]","[u'red', u'black', u'blue']","[u'left', u'middle', u'right']","[0.9, 0.5, 0.1]","[u'medium', u'low', u'high']","blue",51,"right","high","True","False",996,800,NA
"ACPIVPK8OL94P","Tue Sep 29 2020 12:52:30 GMT-0700 (Pacific Daylight Time)","Tue Sep 29 2020 13:00:37 GMT-0700 (Pacific Daylight Time)","Mozilla/5.0 (Windows NT 6.3; Win64; x64) AppleWebKit/537.36 (KHTML, like Gecko) Chrome/84.0.4147.125 Safari/537.36",15,"[0.9, 0.5, 0.1]","[0.8, 0.4, 0.2]","[u'red', u'black', u'blue']","[u'left', u'middle', u'right']","[0.9, 0.5, 0.1]","[u'medium', u'low', u'high']","blue",51,"right","high","True","True",168,900,NA
"ACPIVPK8OL94P","Tue Sep 29 2020 12:52:30 GMT-0700 (Pacific Daylight Time)","Tue Sep 29 2020 13:00:37 GMT-0700 (Pacific Daylight Time)","Mozilla/5.0 (Windows NT 6.3; Win64; x64) AppleWebKit/537.36 (KHTML, like Gecko) Chrome/84.0.4147.125 Safari/537.36",16,"[0.9, 0.5, 0.1]","[0.8, 0.4, 0.2]","[u'red', u'black', u'blue']","[u'left', u'middle', u'right']","[0.9, 0.5, 0.1]","[u'high', u'medium', u'low']","blue",51,"right","low","True","False",388,1000,NA
"ACPIVPK8OL94P","Tue Sep 29 2020 12:52:30 GMT-0700 (Pacific Daylight Time)","Tue Sep 29 2020 13:00:37 GMT-0700 (Pacific Daylight Time)","Mozilla/5.0 (Windows NT 6.3; Win64; x64) AppleWebKit/537.36 (KHTML, like Gecko) Chrome/84.0.4147.125 Safari/537.36",17,"[0.9, 0.5, 0.1]","[0.8, 0.4, 0.2]","[u'red', u'black', u'blue']","[u'left', u'middle', u'right']","[0.9, 0.5, 0.1]","[u'high', u'medium', u'low']","blue",51,"right","low","False","False",425,950,NA
"ACPIVPK8OL94P","Tue Sep 29 2020 12:52:30 GMT-0700 (Pacific Daylight Time)","Tue Sep 29 2020 13:00:37 GMT-0700 (Pacific Daylight Time)","Mozilla/5.0 (Windows NT 6.3; Win64; x64) AppleWebKit/537.36 (KHTML, like Gecko) Chrome/84.0.4147.125 Safari/537.36",18,"[0.9, 0.5, 0.1]","[0.8, 0.4, 0.2]","[u'red', u'black', u'blue']","[u'left', u'middle', u'right']","[0.9, 0.5, 0.1]","[u'high', u'medium', u'low']","black",50,"middle","medium","False","False",725,900,NA
"ACPIVPK8OL94P","Tue Sep 29 2020 12:52:30 GMT-0700 (Pacific Daylight Time)","Tue Sep 29 2020 13:00:37 GMT-0700 (Pacific Daylight Time)","Mozilla/5.0 (Windows NT 6.3; Win64; x64) AppleWebKit/537.36 (KHTML, like Gecko) Chrome/84.0.4147.125 Safari/537.36",19,"[0.9, 0.5, 0.1]","[0.8, 0.4, 0.2]","[u'red', u'black', u'blue']","[u'left', u'middle', u'right']","[0.9, 0.5, 0.1]","[u'high', u'medium', u'low']","red",49,"left","high","False","False",255,850,NA
"ACPIVPK8OL94P","Tue Sep 29 2020 12:52:30 GMT-0700 (Pacific Daylight Time)","Tue Sep 29 2020 13:00:37 GMT-0700 (Pacific Daylight Time)","Mozilla/5.0 (Windows NT 6.3; Win64; x64) AppleWebKit/537.36 (KHTML, like Gecko) Chrome/84.0.4147.125 Safari/537.36",20,"[0.9, 0.5, 0.1]","[0.8, 0.4, 0.2]","[u'red', u'black', u'blue']","[u'left', u'middle', u'right']","[0.9, 0.5, 0.1]","[u'high', u'medium', u'low']","black",50,"middle","medium","True","False",937,950,NA
"ACPIVPK8OL94P","Tue Sep 29 2020 12:52:30 GMT-0700 (Pacific Daylight Time)","Tue Sep 29 2020 13:00:37 GMT-0700 (Pacific Daylight Time)","Mozilla/5.0 (Windows NT 6.3; Win64; x64) AppleWebKit/537.36 (KHTML, like Gecko) Chrome/84.0.4147.125 Safari/537.36",21,"[0.9, 0.5, 0.1]","[0.8, 0.4, 0.2]","[u'red', u'black', u'blue']","[u'left', u'middle', u'right']","[0.9, 0.5, 0.1]","[u'high', u'medium', u'low']","black",50,"middle","medium","False","False",160,900,NA
"ACPIVPK8OL94P","Tue Sep 29 2020 12:52:30 GMT-0700 (Pacific Daylight Time)","Tue Sep 29 2020 13:00:37 GMT-0700 (Pacific Daylight Time)","Mozilla/5.0 (Windows NT 6.3; Win64; x64) AppleWebKit/537.36 (KHTML, like Gecko) Chrome/84.0.4147.125 Safari/537.36",22,"[0.9, 0.5, 0.1]","[0.8, 0.4, 0.2]","[u'red', u'black', u'blue']","[u'left', u'middle', u'right']","[0.9, 0.5, 0.1]","[u'high', u'medium', u'low']","red",49,"left","high","False","False",87,850,NA
"ACPIVPK8OL94P","Tue Sep 29 2020 12:52:30 GMT-0700 (Pacific Daylight Time)","Tue Sep 29 2020 13:00:37 GMT-0700 (Pacific Daylight Time)","Mozilla/5.0 (Windows NT 6.3; Win64; x64) AppleWebKit/537.36 (KHTML, like Gecko) Chrome/84.0.4147.125 Safari/537.36",23,"[0.9, 0.5, 0.1]","[0.8, 0.4, 0.2]","[u'red', u'black', u'blue']","[u'left', u'middle', u'right']","[0.9, 0.5, 0.1]","[u'high', u'medium', u'low']","blue",51,"right","low","True","False",460,950,NA
"ACPIVPK8OL94P","Tue Sep 29 2020 12:52:30 GMT-0700 (Pacific Daylight Time)","Tue Sep 29 2020 13:00:37 GMT-0700 (Pacific Daylight Time)","Mozilla/5.0 (Windows NT 6.3; Win64; x64) AppleWebKit/537.36 (KHTML, like Gecko) Chrome/84.0.4147.125 Safari/537.36",24,"[0.9, 0.5, 0.1]","[0.8, 0.4, 0.2]","[u'red', u'black', u'blue']","[u'left', u'middle', u'right']","[0.9, 0.5, 0.1]","[u'high', u'medium', u'low']","blue",51,"right","low","False","False",331,900,NA
"ACPIVPK8OL94P","Tue Sep 29 2020 12:52:30 GMT-0700 (Pacific Daylight Time)","Tue Sep 29 2020 13:00:37 GMT-0700 (Pacific Daylight Time)","Mozilla/5.0 (Windows NT 6.3; Win64; x64) AppleWebKit/537.36 (KHTML, like Gecko) Chrome/84.0.4147.125 Safari/537.36",25,"[0.9, 0.5, 0.1]","[0.8, 0.4, 0.2]","[u'red', u'black', u'blue']","[u'left', u'middle', u'right']","[0.9, 0.5, 0.1]","[u'high', u'medium', u'low']","black",50,"middle","medium","True","False",701,1000,NA
"ACPIVPK8OL94P","Tue Sep 29 2020 12:52:30 GMT-0700 (Pacific Daylight Time)","Tue Sep 29 2020 13:00:37 GMT-0700 (Pacific Daylight Time)","Mozilla/5.0 (Windows NT 6.3; Win64; x64) AppleWebKit/537.36 (KHTML, like Gecko) Chrome/84.0.4147.125 Safari/537.36",26,"[0.9, 0.5, 0.1]","[0.8, 0.4, 0.2]","[u'red', u'black', u'blue']","[u'left', u'middle', u'right']","[0.9, 0.5, 0.1]","[u'high', u'medium', u'low']","black",50,"middle","medium","False","False",870,950,NA
"ACPIVPK8OL94P","Tue Sep 29 2020 12:52:30 GMT-0700 (Pacific Daylight Time)","Tue Sep 29 2020 13:00:37 GMT-0700 (Pacific Daylight Time)","Mozilla/5.0 (Windows NT 6.3; Win64; x64) AppleWebKit/537.36 (KHTML, like Gecko) Chrome/84.0.4147.125 Safari/537.36",27,"[0.9, 0.5, 0.1]","[0.8, 0.4, 0.2]","[u'red', u'black', u'blue']","[u'left', u'middle', u'right']","[0.9, 0.5, 0.1]","[u'high', u'medium', u'low']","red",49,"left","high","True","False",91,1050,NA
"ACPIVPK8OL94P","Tue Sep 29 2020 12:52:30 GMT-0700 (Pacific Daylight Time)","Tue Sep 29 2020 13:00:37 GMT-0700 (Pacific Daylight Time)","Mozilla/5.0 (Windows NT 6.3; Win64; x64) AppleWebKit/537.36 (KHTML, like Gecko) Chrome/84.0.4147.125 Safari/537.36",28,"[0.9, 0.5, 0.1]","[0.8, 0.4, 0.2]","[u'red', u'black', u'blue']","[u'left', u'middle', u'right']","[0.9, 0.5, 0.1]","[u'high', u'medium', u'low']","red",49,"left","high","True","False",636,1150,NA
"ACPIVPK8OL94P","Tue Sep 29 2020 12:52:30 GMT-0700 (Pacific Daylight Time)","Tue Sep 29 2020 13:00:37 GMT-0700 (Pacific Daylight Time)","Mozilla/5.0 (Windows NT 6.3; Win64; x64) AppleWebKit/537.36 (KHTML, like Gecko) Chrome/84.0.4147.125 Safari/537.36",29,"[0.9, 0.5, 0.1]","[0.8, 0.4, 0.2]","[u'red', u'black', u'blue']","[u'left', u'middle', u'right']","[0.9, 0.5, 0.1]","[u'high', u'medium', u'low']","black",50,"middle","medium","True","False",381,1250,NA
"ACPIVPK8OL94P","Tue Sep 29 2020 12:52:30 GMT-0700 (Pacific Daylight Time)","Tue Sep 29 2020 13:00:37 GMT-0700 (Pacific Daylight Time)","Mozilla/5.0 (Windows NT 6.3; Win64; x64) AppleWebKit/537.36 (KHTML, like Gecko) Chrome/84.0.4147.125 Safari/537.36",30,"[0.9, 0.5, 0.1]","[0.8, 0.4, 0.2]","[u'red', u'black', u'blue']","[u'left', u'middle', u'right']","[0.9, 0.5, 0.1]","[u'high', u'medium', u'low']","black",50,"middle","medium","True","False",659,1350,NA
"ACPIVPK8OL94P","Tue Sep 29 2020 12:52:30 GMT-0700 (Pacific Daylight Time)","Tue Sep 29 2020 13:00:37 GMT-0700 (Pacific Daylight Time)","Mozilla/5.0 (Windows NT 6.3; Win64; x64) AppleWebKit/537.36 (KHTML, like Gecko) Chrome/84.0.4147.125 Safari/537.36",31,"[0.9, 0.5, 0.1]","[0.8, 0.4, 0.2]","[u'red', u'black', u'blue']","[u'left', u'middle', u'right']","[0.9, 0.5, 0.1]","[u'high', u'medium', u'low']","black",50,"middle","medium","False","False",1380,1300,NA
"ACPIVPK8OL94P","Tue Sep 29 2020 12:52:30 GMT-0700 (Pacific Daylight Time)","Tue Sep 29 2020 13:00:37 GMT-0700 (Pacific Daylight Time)","Mozilla/5.0 (Windows NT 6.3; Win64; x64) AppleWebKit/537.36 (KHTML, like Gecko) Chrome/84.0.4147.125 Safari/537.36",32,"[0.9, 0.5, 0.1]","[0.8, 0.4, 0.2]","[u'red', u'black', u'blue']","[u'left', u'middle', u'right']","[0.9, 0.5, 0.1]","[u'high', u'medium', u'low']","black",50,"middle","medium","True","False",4147,1400,NA
"ACPIVPK8OL94P","Tue Sep 29 2020 12:52:30 GMT-0700 (Pacific Daylight Time)","Tue Sep 29 2020 13:00:37 GMT-0700 (Pacific Daylight Time)","Mozilla/5.0 (Windows NT 6.3; Win64; x64) AppleWebKit/537.36 (KHTML, like Gecko) Chrome/84.0.4147.125 Safari/537.36",33,"[0.9, 0.5, 0.1]","[0.8, 0.4, 0.2]","[u'red', u'black', u'blue']","[u'left', u'middle', u'right']","[0.9, 0.5, 0.1]","[u'high', u'medium', u'low']","black",50,"middle","medium","False","False",250,1350,NA
"ACPIVPK8OL94P","Tue Sep 29 2020 12:52:30 GMT-0700 (Pacific Daylight Time)","Tue Sep 29 2020 13:00:37 GMT-0700 (Pacific Daylight Time)","Mozilla/5.0 (Windows NT 6.3; Win64; x64) AppleWebKit/537.36 (KHTML, like Gecko) Chrome/84.0.4147.125 Safari/537.36",34,"[0.9, 0.5, 0.1]","[0.8, 0.4, 0.2]","[u'red', u'black', u'blue']","[u'left', u'middle', u'right']","[0.9, 0.5, 0.1]","[u'high', u'medium', u'low']","blue",51,"right","low","False","False",1524,1300,NA
"ACPIVPK8OL94P","Tue Sep 29 2020 12:52:30 GMT-0700 (Pacific Daylight Time)","Tue Sep 29 2020 13:00:37 GMT-0700 (Pacific Daylight Time)","Mozilla/5.0 (Windows NT 6.3; Win64; x64) AppleWebKit/537.36 (KHTML, like Gecko) Chrome/84.0.4147.125 Safari/537.36",35,"[0.9, 0.5, 0.1]","[0.8, 0.4, 0.2]","[u'red', u'black', u'blue']","[u'left', u'middle', u'right']","[0.9, 0.5, 0.1]","[u'high', u'medium', u'low']","black",50,"middle","medium","True","False",994,1400,NA
"ACPIVPK8OL94P","Tue Sep 29 2020 12:52:30 GMT-0700 (Pacific Daylight Time)","Tue Sep 29 2020 13:00:37 GMT-0700 (Pacific Daylight Time)","Mozilla/5.0 (Windows NT 6.3; Win64; x64) AppleWebKit/537.36 (KHTML, like Gecko) Chrome/84.0.4147.125 Safari/537.36",36,"[0.9, 0.5, 0.1]","[0.8, 0.4, 0.2]","[u'red', u'black', u'blue']","[u'left', u'middle', u'right']","[0.9, 0.5, 0.1]","[u'high', u'medium', u'low']","black",50,"middle","medium","True","False",1613,1500,NA
"ACPIVPK8OL94P","Tue Sep 29 2020 12:52:30 GMT-0700 (Pacific Daylight Time)","Tue Sep 29 2020 13:00:37 GMT-0700 (Pacific Daylight Time)","Mozilla/5.0 (Windows NT 6.3; Win64; x64) AppleWebKit/537.36 (KHTML, like Gecko) Chrome/84.0.4147.125 Safari/537.36",37,"[0.9, 0.5, 0.1]","[0.8, 0.4, 0.2]","[u'red', u'black', u'blue']","[u'left', u'middle', u'right']","[0.9, 0.5, 0.1]","[u'high', u'medium', u'low']","black",50,"middle","medium","True","False",5857,1600,NA
"ACPIVPK8OL94P","Tue Sep 29 2020 12:52:30 GMT-0700 (Pacific Daylight Time)","Tue Sep 29 2020 13:00:37 GMT-0700 (Pacific Daylight Time)","Mozilla/5.0 (Windows NT 6.3; Win64; x64) AppleWebKit/537.36 (KHTML, like Gecko) Chrome/84.0.4147.125 Safari/537.36",38,"[0.9, 0.5, 0.1]","[0.8, 0.4, 0.2]","[u'red', u'black', u'blue']","[u'left', u'middle', u'right']","[0.9, 0.5, 0.1]","[u'high', u'medium', u'low']","black",50,"middle","medium","False","False",147,1550,NA
"ACPIVPK8OL94P","Tue Sep 29 2020 12:52:30 GMT-0700 (Pacific Daylight Time)","Tue Sep 29 2020 13:00:37 GMT-0700 (Pacific Daylight Time)","Mozilla/5.0 (Windows NT 6.3; Win64; x64) AppleWebKit/537.36 (KHTML, like Gecko) Chrome/84.0.4147.125 Safari/537.36",39,"[0.9, 0.5, 0.1]","[0.8, 0.4, 0.2]","[u'red', u'black', u'blue']","[u'left', u'middle', u'right']","[0.9, 0.5, 0.1]","[u'high', u'medium', u'low']","red",49,"left","high","False","False",274,1500,NA
"ACPIVPK8OL94P","Tue Sep 29 2020 12:52:30 GMT-0700 (Pacific Daylight Time)","Tue Sep 29 2020 13:00:37 GMT-0700 (Pacific Daylight Time)","Mozilla/5.0 (Windows NT 6.3; Win64; x64) AppleWebKit/537.36 (KHTML, like Gecko) Chrome/84.0.4147.125 Safari/537.36",40,"[0.9, 0.5, 0.1]","[0.8, 0.4, 0.2]","[u'red', u'black', u'blue']","[u'left', u'middle', u'right']","[0.9, 0.5, 0.1]","[u'high', u'medium', u'low']","black",50,"middle","medium","True","False",664,1600,NA
"ACPIVPK8OL94P","Tue Sep 29 2020 12:52:30 GMT-0700 (Pacific Daylight Time)","Tue Sep 29 2020 13:00:37 GMT-0700 (Pacific Daylight Time)","Mozilla/5.0 (Windows NT 6.3; Win64; x64) AppleWebKit/537.36 (KHTML, like Gecko) Chrome/84.0.4147.125 Safari/537.36",41,"[0.9, 0.5, 0.1]","[0.8, 0.4, 0.2]","[u'red', u'black', u'blue']","[u'left', u'middle', u'right']","[0.9, 0.5, 0.1]","[u'medium', u'high', u'low']","black",50,"middle","high","True","False",839,1700,NA
"ACPIVPK8OL94P","Tue Sep 29 2020 12:52:30 GMT-0700 (Pacific Daylight Time)","Tue Sep 29 2020 13:00:37 GMT-0700 (Pacific Daylight Time)","Mozilla/5.0 (Windows NT 6.3; Win64; x64) AppleWebKit/537.36 (KHTML, like Gecko) Chrome/84.0.4147.125 Safari/537.36",42,"[0.9, 0.5, 0.1]","[0.8, 0.4, 0.2]","[u'red', u'black', u'blue']","[u'left', u'middle', u'right']","[0.9, 0.5, 0.1]","[u'medium', u'high', u'low']","black",50,"middle","high","True","False",106,1800,NA
"ACPIVPK8OL94P","Tue Sep 29 2020 12:52:30 GMT-0700 (Pacific Daylight Time)","Tue Sep 29 2020 13:00:37 GMT-0700 (Pacific Daylight Time)","Mozilla/5.0 (Windows NT 6.3; Win64; x64) AppleWebKit/537.36 (KHTML, like Gecko) Chrome/84.0.4147.125 Safari/537.36",43,"[0.9, 0.5, 0.1]","[0.8, 0.4, 0.2]","[u'red', u'black', u'blue']","[u'left', u'middle', u'right']","[0.9, 0.5, 0.1]","[u'medium', u'high', u'low']","red",49,"left","medium","True","False",622,1900,NA
"ACPIVPK8OL94P","Tue Sep 29 2020 12:52:30 GMT-0700 (Pacific Daylight Time)","Tue Sep 29 2020 13:00:37 GMT-0700 (Pacific Daylight Time)","Mozilla/5.0 (Windows NT 6.3; Win64; x64) AppleWebKit/537.36 (KHTML, like Gecko) Chrome/84.0.4147.125 Safari/537.36",44,"[0.9, 0.5, 0.1]","[0.8, 0.4, 0.2]","[u'red', u'black', u'blue']","[u'left', u'middle', u'right']","[0.9, 0.5, 0.1]","[u'medium', u'high', u'low']","black",50,"middle","high","True","False",20,2000,NA
"ACPIVPK8OL94P","Tue Sep 29 2020 12:52:30 GMT-0700 (Pacific Daylight Time)","Tue Sep 29 2020 13:00:37 GMT-0700 (Pacific Daylight Time)","Mozilla/5.0 (Windows NT 6.3; Win64; x64) AppleWebKit/537.36 (KHTML, like Gecko) Chrome/84.0.4147.125 Safari/537.36",45,"[0.9, 0.5, 0.1]","[0.8, 0.4, 0.2]","[u'red', u'black', u'blue']","[u'left', u'middle', u'right']","[0.9, 0.5, 0.1]","[u'medium', u'high', u'low']","red",49,"left","medium","False","False",150,1950,NA
"ACPIVPK8OL94P","Tue Sep 29 2020 12:52:30 GMT-0700 (Pacific Daylight Time)","Tue Sep 29 2020 13:00:37 GMT-0700 (Pacific Daylight Time)","Mozilla/5.0 (Windows NT 6.3; Win64; x64) AppleWebKit/537.36 (KHTML, like Gecko) Chrome/84.0.4147.125 Safari/537.36",46,"[0.9, 0.5, 0.1]","[0.8, 0.4, 0.2]","[u'red', u'black', u'blue']","[u'left', u'middle', u'right']","[0.9, 0.5, 0.1]","[u'medium', u'high', u'low']","black",50,"middle","high","True","False",290,2050,NA
"ACPIVPK8OL94P","Tue Sep 29 2020 12:52:30 GMT-0700 (Pacific Daylight Time)","Tue Sep 29 2020 13:00:37 GMT-0700 (Pacific Daylight Time)","Mozilla/5.0 (Windows NT 6.3; Win64; x64) AppleWebKit/537.36 (KHTML, like Gecko) Chrome/84.0.4147.125 Safari/537.36",47,"[0.9, 0.5, 0.1]","[0.8, 0.4, 0.2]","[u'red', u'black', u'blue']","[u'left', u'middle', u'right']","[0.9, 0.5, 0.1]","[u'medium', u'high', u'low']","black",50,"middle","high","True","False",277,2150,NA
"ACPIVPK8OL94P","Tue Sep 29 2020 12:52:30 GMT-0700 (Pacific Daylight Time)","Tue Sep 29 2020 13:00:37 GMT-0700 (Pacific Daylight Time)","Mozilla/5.0 (Windows NT 6.3; Win64; x64) AppleWebKit/537.36 (KHTML, like Gecko) Chrome/84.0.4147.125 Safari/537.36",48,"[0.9, 0.5, 0.1]","[0.8, 0.4, 0.2]","[u'red', u'black', u'blue']","[u'left', u'middle', u'right']","[0.9, 0.5, 0.1]","[u'medium', u'high', u'low']","black",50,"middle","high","True","False",316,2250,NA
"ACPIVPK8OL94P","Tue Sep 29 2020 12:52:30 GMT-0700 (Pacific Daylight Time)","Tue Sep 29 2020 13:00:37 GMT-0700 (Pacific Daylight Time)","Mozilla/5.0 (Windows NT 6.3; Win64; x64) AppleWebKit/537.36 (KHTML, like Gecko) Chrome/84.0.4147.125 Safari/537.36",49,"[0.9, 0.5, 0.1]","[0.8, 0.4, 0.2]","[u'red', u'black', u'blue']","[u'left', u'middle', u'right']","[0.9, 0.5, 0.1]","[u'medium', u'high', u'low']","black",50,"middle","high","True","False",32,2350,NA
"ACPIVPK8OL94P","Tue Sep 29 2020 12:52:30 GMT-0700 (Pacific Daylight Time)","Tue Sep 29 2020 13:00:37 GMT-0700 (Pacific Daylight Time)","Mozilla/5.0 (Windows NT 6.3; Win64; x64) AppleWebKit/537.36 (KHTML, like Gecko) Chrome/84.0.4147.125 Safari/537.36",50,"[0.9, 0.5, 0.1]","[0.8, 0.4, 0.2]","[u'red', u'black', u'blue']","[u'left', u'middle', u'right']","[0.9, 0.5, 0.1]","[u'medium', u'high', u'low']","black",50,"middle","high","True","False",256,2450,NA
"ACPIVPK8OL94P","Tue Sep 29 2020 12:52:30 GMT-0700 (Pacific Daylight Time)","Tue Sep 29 2020 13:00:37 GMT-0700 (Pacific Daylight Time)","Mozilla/5.0 (Windows NT 6.3; Win64; x64) AppleWebKit/537.36 (KHTML, like Gecko) Chrome/84.0.4147.125 Safari/537.36",51,"[0.9, 0.5, 0.1]","[0.8, 0.4, 0.2]","[u'red', u'black', u'blue']","[u'left', u'middle', u'right']","[0.9, 0.5, 0.1]","[u'medium', u'high', u'low']","black",50,"middle","high","True","False",113,2550,NA
"ACPIVPK8OL94P","Tue Sep 29 2020 12:52:30 GMT-0700 (Pacific Daylight Time)","Tue Sep 29 2020 13:00:37 GMT-0700 (Pacific Daylight Time)","Mozilla/5.0 (Windows NT 6.3; Win64; x64) AppleWebKit/537.36 (KHTML, like Gecko) Chrome/84.0.4147.125 Safari/537.36",52,"[0.9, 0.5, 0.1]","[0.8, 0.4, 0.2]","[u'red', u'black', u'blue']","[u'left', u'middle', u'right']","[0.9, 0.5, 0.1]","[u'medium', u'high', u'low']","black",50,"middle","high","True","False",761,2650,NA
"ACPIVPK8OL94P","Tue Sep 29 2020 12:52:30 GMT-0700 (Pacific Daylight Time)","Tue Sep 29 2020 13:00:37 GMT-0700 (Pacific Daylight Time)","Mozilla/5.0 (Windows NT 6.3; Win64; x64) AppleWebKit/537.36 (KHTML, like Gecko) Chrome/84.0.4147.125 Safari/537.36",53,"[0.9, 0.5, 0.1]","[0.8, 0.4, 0.2]","[u'red', u'black', u'blue']","[u'left', u'middle', u'right']","[0.9, 0.5, 0.1]","[u'medium', u'high', u'low']","black",50,"middle","high","True","False",1601,2750,NA
"ACPIVPK8OL94P","Tue Sep 29 2020 12:52:30 GMT-0700 (Pacific Daylight Time)","Tue Sep 29 2020 13:00:37 GMT-0700 (Pacific Daylight Time)","Mozilla/5.0 (Windows NT 6.3; Win64; x64) AppleWebKit/537.36 (KHTML, like Gecko) Chrome/84.0.4147.125 Safari/537.36",54,"[0.9, 0.5, 0.1]","[0.8, 0.4, 0.2]","[u'red', u'black', u'blue']","[u'left', u'middle', u'right']","[0.9, 0.5, 0.1]","[u'medium', u'high', u'low']","black",50,"middle","high","True","True",256,2850,NA
"ACPIVPK8OL94P","Tue Sep 29 2020 12:52:30 GMT-0700 (Pacific Daylight Time)","Tue Sep 29 2020 13:00:37 GMT-0700 (Pacific Daylight Time)","Mozilla/5.0 (Windows NT 6.3; Win64; x64) AppleWebKit/537.36 (KHTML, like Gecko) Chrome/84.0.4147.125 Safari/537.36",55,"[0.9, 0.5, 0.1]","[0.8, 0.4, 0.2]","[u'red', u'black', u'blue']","[u'left', u'middle', u'right']","[0.9, 0.5, 0.1]","[u'high', u'medium', u'low']","black",50,"middle","medium","True","False",27,2950,NA
"ACPIVPK8OL94P","Tue Sep 29 2020 12:52:30 GMT-0700 (Pacific Daylight Time)","Tue Sep 29 2020 13:00:37 GMT-0700 (Pacific Daylight Time)","Mozilla/5.0 (Windows NT 6.3; Win64; x64) AppleWebKit/537.36 (KHTML, like Gecko) Chrome/84.0.4147.125 Safari/537.36",56,"[0.9, 0.5, 0.1]","[0.8, 0.4, 0.2]","[u'red', u'black', u'blue']","[u'left', u'middle', u'right']","[0.9, 0.5, 0.1]","[u'high', u'medium', u'low']","black",50,"middle","medium","False","False",1478,2900,NA
"ACPIVPK8OL94P","Tue Sep 29 2020 12:52:30 GMT-0700 (Pacific Daylight Time)","Tue Sep 29 2020 13:00:37 GMT-0700 (Pacific Daylight Time)","Mozilla/5.0 (Windows NT 6.3; Win64; x64) AppleWebKit/537.36 (KHTML, like Gecko) Chrome/84.0.4147.125 Safari/537.36",57,"[0.9, 0.5, 0.1]","[0.8, 0.4, 0.2]","[u'red', u'black', u'blue']","[u'left', u'middle', u'right']","[0.9, 0.5, 0.1]","[u'high', u'medium', u'low']","black",50,"middle","medium","False","False",145,2850,NA
"ACPIVPK8OL94P","Tue Sep 29 2020 12:52:30 GMT-0700 (Pacific Daylight Time)","Tue Sep 29 2020 13:00:37 GMT-0700 (Pacific Daylight Time)","Mozilla/5.0 (Windows NT 6.3; Win64; x64) AppleWebKit/537.36 (KHTML, like Gecko) Chrome/84.0.4147.125 Safari/537.36",58,"[0.9, 0.5, 0.1]","[0.8, 0.4, 0.2]","[u'red', u'black', u'blue']","[u'left', u'middle', u'right']","[0.9, 0.5, 0.1]","[u'high', u'medium', u'low']","black",50,"middle","medium","True","False",489,2950,NA
"ACPIVPK8OL94P","Tue Sep 29 2020 12:52:30 GMT-0700 (Pacific Daylight Time)","Tue Sep 29 2020 13:00:37 GMT-0700 (Pacific Daylight Time)","Mozilla/5.0 (Windows NT 6.3; Win64; x64) AppleWebKit/537.36 (KHTML, like Gecko) Chrome/84.0.4147.125 Safari/537.36",59,"[0.9, 0.5, 0.1]","[0.8, 0.4, 0.2]","[u'red', u'black', u'blue']","[u'left', u'middle', u'right']","[0.9, 0.5, 0.1]","[u'high', u'medium', u'low']","black",50,"middle","medium","False","False",2204,2900,NA
"ACPIVPK8OL94P","Tue Sep 29 2020 12:52:30 GMT-0700 (Pacific Daylight Time)","Tue Sep 29 2020 13:00:37 GMT-0700 (Pacific Daylight Time)","Mozilla/5.0 (Windows NT 6.3; Win64; x64) AppleWebKit/537.36 (KHTML, like Gecko) Chrome/84.0.4147.125 Safari/537.36",60,"[0.9, 0.5, 0.1]","[0.8, 0.4, 0.2]","[u'red', u'black', u'blue']","[u'left', u'middle', u'right']","[0.9, 0.5, 0.1]","[u'high', u'medium', u'low']","black",50,"middle","medium","False","False",140,2850,NA
"ACPIVPK8OL94P","Tue Sep 29 2020 12:52:30 GMT-0700 (Pacific Daylight Time)","Tue Sep 29 2020 13:00:37 GMT-0700 (Pacific Daylight Time)","Mozilla/5.0 (Windows NT 6.3; Win64; x64) AppleWebKit/537.36 (KHTML, like Gecko) Chrome/84.0.4147.125 Safari/537.36",61,"[0.9, 0.5, 0.1]","[0.8, 0.4, 0.2]","[u'red', u'black', u'blue']","[u'left', u'middle', u'right']","[0.9, 0.5, 0.1]","[u'high', u'medium', u'low']","black",50,"middle","medium","True","False",1481,2950,NA
"ACPIVPK8OL94P","Tue Sep 29 2020 12:52:30 GMT-0700 (Pacific Daylight Time)","Tue Sep 29 2020 13:00:37 GMT-0700 (Pacific Daylight Time)","Mozilla/5.0 (Windows NT 6.3; Win64; x64) AppleWebKit/537.36 (KHTML, like Gecko) Chrome/84.0.4147.125 Safari/537.36",62,"[0.9, 0.5, 0.1]","[0.8, 0.4, 0.2]","[u'red', u'black', u'blue']","[u'left', u'middle', u'right']","[0.9, 0.5, 0.1]","[u'high', u'medium', u'low']","blue",51,"right","low","False","False",1186,2900,NA
"ACPIVPK8OL94P","Tue Sep 29 2020 12:52:30 GMT-0700 (Pacific Daylight Time)","Tue Sep 29 2020 13:00:37 GMT-0700 (Pacific Daylight Time)","Mozilla/5.0 (Windows NT 6.3; Win64; x64) AppleWebKit/537.36 (KHTML, like Gecko) Chrome/84.0.4147.125 Safari/537.36",63,"[0.9, 0.5, 0.1]","[0.8, 0.4, 0.2]","[u'red', u'black', u'blue']","[u'left', u'middle', u'right']","[0.9, 0.5, 0.1]","[u'high', u'medium', u'low']","black",50,"middle","medium","True","False",547,3000,NA
"ACPIVPK8OL94P","Tue Sep 29 2020 12:52:30 GMT-0700 (Pacific Daylight Time)","Tue Sep 29 2020 13:00:37 GMT-0700 (Pacific Daylight Time)","Mozilla/5.0 (Windows NT 6.3; Win64; x64) AppleWebKit/537.36 (KHTML, like Gecko) Chrome/84.0.4147.125 Safari/537.36",64,"[0.9, 0.5, 0.1]","[0.8, 0.4, 0.2]","[u'red', u'black', u'blue']","[u'left', u'middle', u'right']","[0.9, 0.5, 0.1]","[u'high', u'medium', u'low']","black",50,"middle","medium","True","False",1206,3100,NA
"ACPIVPK8OL94P","Tue Sep 29 2020 12:52:30 GMT-0700 (Pacific Daylight Time)","Tue Sep 29 2020 13:00:37 GMT-0700 (Pacific Daylight Time)","Mozilla/5.0 (Windows NT 6.3; Win64; x64) AppleWebKit/537.36 (KHTML, like Gecko) Chrome/84.0.4147.125 Safari/537.36",65,"[0.9, 0.5, 0.1]","[0.8, 0.4, 0.2]","[u'red', u'black', u'blue']","[u'left', u'middle', u'right']","[0.9, 0.5, 0.1]","[u'high', u'medium', u'low']","black",50,"middle","medium","True","False",1483,3200,NA
"ACPIVPK8OL94P","Tue Sep 29 2020 12:52:30 GMT-0700 (Pacific Daylight Time)","Tue Sep 29 2020 13:00:37 GMT-0700 (Pacific Daylight Time)","Mozilla/5.0 (Windows NT 6.3; Win64; x64) AppleWebKit/537.36 (KHTML, like Gecko) Chrome/84.0.4147.125 Safari/537.36",66,"[0.9, 0.5, 0.1]","[0.8, 0.4, 0.2]","[u'red', u'black', u'blue']","[u'left', u'middle', u'right']","[0.9, 0.5, 0.1]","[u'high', u'medium', u'low']","black",50,"middle","medium","True","False",1516,3300,NA
"ACPIVPK8OL94P","Tue Sep 29 2020 12:52:30 GMT-0700 (Pacific Daylight Time)","Tue Sep 29 2020 13:00:37 GMT-0700 (Pacific Daylight Time)","Mozilla/5.0 (Windows NT 6.3; Win64; x64) AppleWebKit/537.36 (KHTML, like Gecko) Chrome/84.0.4147.125 Safari/537.36",67,"[0.9, 0.5, 0.1]","[0.8, 0.4, 0.2]","[u'red', u'black', u'blue']","[u'left', u'middle', u'right']","[0.9, 0.5, 0.1]","[u'high', u'medium', u'low']","black",50,"middle","medium","True","False",3161,3400,NA
"ACPIVPK8OL94P","Tue Sep 29 2020 12:52:30 GMT-0700 (Pacific Daylight Time)","Tue Sep 29 2020 13:00:37 GMT-0700 (Pacific Daylight Time)","Mozilla/5.0 (Windows NT 6.3; Win64; x64) AppleWebKit/537.36 (KHTML, like Gecko) Chrome/84.0.4147.125 Safari/537.36",68,"[0.9, 0.5, 0.1]","[0.8, 0.4, 0.2]","[u'red', u'black', u'blue']","[u'left', u'middle', u'right']","[0.9, 0.5, 0.1]","[u'high', u'medium', u'low']","blue",51,"right","low","False","False",1669,3350,NA
"ACPIVPK8OL94P","Tue Sep 29 2020 12:52:30 GMT-0700 (Pacific Daylight Time)","Tue Sep 29 2020 13:00:37 GMT-0700 (Pacific Daylight Time)","Mozilla/5.0 (Windows NT 6.3; Win64; x64) AppleWebKit/537.36 (KHTML, like Gecko) Chrome/84.0.4147.125 Safari/537.36",69,"[0.9, 0.5, 0.1]","[0.8, 0.4, 0.2]","[u'red', u'black', u'blue']","[u'left', u'middle', u'right']","[0.9, 0.5, 0.1]","[u'high', u'medium', u'low']","blue",51,"right","low","False","False",3987,3300,NA
"ACPIVPK8OL94P","Tue Sep 29 2020 12:52:30 GMT-0700 (Pacific Daylight Time)","Tue Sep 29 2020 13:00:37 GMT-0700 (Pacific Daylight Time)","Mozilla/5.0 (Windows NT 6.3; Win64; x64) AppleWebKit/537.36 (KHTML, like Gecko) Chrome/84.0.4147.125 Safari/537.36",70,"[0.9, 0.5, 0.1]","[0.8, 0.4, 0.2]","[u'red', u'black', u'blue']","[u'left', u'middle', u'right']","[0.9, 0.5, 0.1]","[u'high', u'medium', u'low']","black",50,"middle","medium","True","False",3465,3400,NA
"ACPIVPK8OL94P","Tue Sep 29 2020 12:52:30 GMT-0700 (Pacific Daylight Time)","Tue Sep 29 2020 13:00:37 GMT-0700 (Pacific Daylight Time)","Mozilla/5.0 (Windows NT 6.3; Win64; x64) AppleWebKit/537.36 (KHTML, like Gecko) Chrome/84.0.4147.125 Safari/537.36",71,"[0.9, 0.5, 0.1]","[0.8, 0.4, 0.2]","[u'red', u'black', u'blue']","[u'left', u'middle', u'right']","[0.9, 0.5, 0.1]","[u'high', u'medium', u'low']","black",50,"middle","medium","False","False",962,3350,NA
"ACPIVPK8OL94P","Tue Sep 29 2020 12:52:30 GMT-0700 (Pacific Daylight Time)","Tue Sep 29 2020 13:00:37 GMT-0700 (Pacific Daylight Time)","Mozilla/5.0 (Windows NT 6.3; Win64; x64) AppleWebKit/537.36 (KHTML, like Gecko) Chrome/84.0.4147.125 Safari/537.36",72,"[0.9, 0.5, 0.1]","[0.8, 0.4, 0.2]","[u'red', u'black', u'blue']","[u'left', u'middle', u'right']","[0.9, 0.5, 0.1]","[u'high', u'medium', u'low']","black",50,"middle","medium","True","False",1361,3450,NA
"ACPIVPK8OL94P","Tue Sep 29 2020 12:52:30 GMT-0700 (Pacific Daylight Time)","Tue Sep 29 2020 13:00:37 GMT-0700 (Pacific Daylight Time)","Mozilla/5.0 (Windows NT 6.3; Win64; x64) AppleWebKit/537.36 (KHTML, like Gecko) Chrome/84.0.4147.125 Safari/537.36",73,"[0.9, 0.5, 0.1]","[0.8, 0.4, 0.2]","[u'red', u'black', u'blue']","[u'left', u'middle', u'right']","[0.9, 0.5, 0.1]","[u'high', u'medium', u'low']","black",50,"middle","medium","False","False",2329,3400,NA
"ACPIVPK8OL94P","Tue Sep 29 2020 12:52:30 GMT-0700 (Pacific Daylight Time)","Tue Sep 29 2020 13:00:37 GMT-0700 (Pacific Daylight Time)","Mozilla/5.0 (Windows NT 6.3; Win64; x64) AppleWebKit/537.36 (KHTML, like Gecko) Chrome/84.0.4147.125 Safari/537.36",74,"[0.9, 0.5, 0.1]","[0.8, 0.4, 0.2]","[u'red', u'black', u'blue']","[u'left', u'middle', u'right']","[0.9, 0.5, 0.1]","[u'high', u'medium', u'low']","red",49,"left","high","False","False",1504,3350,NA
"ACPIVPK8OL94P","Tue Sep 29 2020 12:52:30 GMT-0700 (Pacific Daylight Time)","Tue Sep 29 2020 13:00:37 GMT-0700 (Pacific Daylight Time)","Mozilla/5.0 (Windows NT 6.3; Win64; x64) AppleWebKit/537.36 (KHTML, like Gecko) Chrome/84.0.4147.125 Safari/537.36",75,"[0.9, 0.5, 0.1]","[0.8, 0.4, 0.2]","[u'red', u'black', u'blue']","[u'left', u'middle', u'right']","[0.9, 0.5, 0.1]","[u'high', u'medium', u'low']","blue",51,"right","low","False","False",1265,3300,NA
"ACPIVPK8OL94P","Tue Sep 29 2020 12:52:30 GMT-0700 (Pacific Daylight Time)","Tue Sep 29 2020 13:00:37 GMT-0700 (Pacific Daylight Time)","Mozilla/5.0 (Windows NT 6.3; Win64; x64) AppleWebKit/537.36 (KHTML, like Gecko) Chrome/84.0.4147.125 Safari/537.36",76,"[0.9, 0.5, 0.1]","[0.8, 0.4, 0.2]","[u'red', u'black', u'blue']","[u'left', u'middle', u'right']","[0.9, 0.5, 0.1]","[u'high', u'medium', u'low']","blue",51,"right","low","False","False",1803,3250,NA
"ACPIVPK8OL94P","Tue Sep 29 2020 12:52:30 GMT-0700 (Pacific Daylight Time)","Tue Sep 29 2020 13:00:37 GMT-0700 (Pacific Daylight Time)","Mozilla/5.0 (Windows NT 6.3; Win64; x64) AppleWebKit/537.36 (KHTML, like Gecko) Chrome/84.0.4147.125 Safari/537.36",77,"[0.9, 0.5, 0.1]","[0.8, 0.4, 0.2]","[u'red', u'black', u'blue']","[u'left', u'middle', u'right']","[0.9, 0.5, 0.1]","[u'high', u'medium', u'low']","blue",51,"right","low","False","False",475,3200,NA
"ACPIVPK8OL94P","Tue Sep 29 2020 12:52:30 GMT-0700 (Pacific Daylight Time)","Tue Sep 29 2020 13:00:37 GMT-0700 (Pacific Daylight Time)","Mozilla/5.0 (Windows NT 6.3; Win64; x64) AppleWebKit/537.36 (KHTML, like Gecko) Chrome/84.0.4147.125 Safari/537.36",78,"[0.9, 0.5, 0.1]","[0.8, 0.4, 0.2]","[u'red', u'black', u'blue']","[u'left', u'middle', u'right']","[0.9, 0.5, 0.1]","[u'high', u'medium', u'low']","red",49,"left","high","True","False",1074,3300,NA
"ACPIVPK8OL94P","Tue Sep 29 2020 12:52:30 GMT-0700 (Pacific Daylight Time)","Tue Sep 29 2020 13:00:37 GMT-0700 (Pacific Daylight Time)","Mozilla/5.0 (Windows NT 6.3; Win64; x64) AppleWebKit/537.36 (KHTML, like Gecko) Chrome/84.0.4147.125 Safari/537.36",79,"[0.9, 0.5, 0.1]","[0.8, 0.4, 0.2]","[u'red', u'black', u'blue']","[u'left', u'middle', u'right']","[0.9, 0.5, 0.1]","[u'high', u'medium', u'low']","black",50,"middle","medium","True","False",724,3400,NA
"ACPIVPK8OL94P","Tue Sep 29 2020 12:52:30 GMT-0700 (Pacific Daylight Time)","Tue Sep 29 2020 13:00:37 GMT-0700 (Pacific Daylight Time)","Mozilla/5.0 (Windows NT 6.3; Win64; x64) AppleWebKit/537.36 (KHTML, like Gecko) Chrome/84.0.4147.125 Safari/537.36",80,"[0.9, 0.5, 0.1]","[0.8, 0.4, 0.2]","[u'red', u'black', u'blue']","[u'left', u'middle', u'right']","[0.9, 0.5, 0.1]","[u'high', u'medium', u'low']","black",50,"middle","medium","False","False",204,3350,NA
"ACPIVPK8OL94P","Tue Sep 29 2020 12:52:30 GMT-0700 (Pacific Daylight Time)","Tue Sep 29 2020 13:00:37 GMT-0700 (Pacific Daylight Time)","Mozilla/5.0 (Windows NT 6.3; Win64; x64) AppleWebKit/537.36 (KHTML, like Gecko) Chrome/84.0.4147.125 Safari/537.36",81,"[0.9, 0.5, 0.1]","[0.8, 0.4, 0.2]","[u'red', u'black', u'blue']","[u'left', u'middle', u'right']","[0.8, 0.4, 0.2]","[u'medium', u'high', u'low']","black",50,"middle","high","True","False",883,3450,NA
"ACPIVPK8OL94P","Tue Sep 29 2020 12:52:30 GMT-0700 (Pacific Daylight Time)","Tue Sep 29 2020 13:00:37 GMT-0700 (Pacific Daylight Time)","Mozilla/5.0 (Windows NT 6.3; Win64; x64) AppleWebKit/537.36 (KHTML, like Gecko) Chrome/84.0.4147.125 Safari/537.36",82,"[0.9, 0.5, 0.1]","[0.8, 0.4, 0.2]","[u'red', u'black', u'blue']","[u'left', u'middle', u'right']","[0.8, 0.4, 0.2]","[u'medium', u'high', u'low']","black",50,"middle","high","True","False",716,3550,NA
"ACPIVPK8OL94P","Tue Sep 29 2020 12:52:30 GMT-0700 (Pacific Daylight Time)","Tue Sep 29 2020 13:00:37 GMT-0700 (Pacific Daylight Time)","Mozilla/5.0 (Windows NT 6.3; Win64; x64) AppleWebKit/537.36 (KHTML, like Gecko) Chrome/84.0.4147.125 Safari/537.36",83,"[0.9, 0.5, 0.1]","[0.8, 0.4, 0.2]","[u'red', u'black', u'blue']","[u'left', u'middle', u'right']","[0.8, 0.4, 0.2]","[u'medium', u'high', u'low']","black",50,"middle","high","True","False",433,3650,NA
"ACPIVPK8OL94P","Tue Sep 29 2020 12:52:30 GMT-0700 (Pacific Daylight Time)","Tue Sep 29 2020 13:00:37 GMT-0700 (Pacific Daylight Time)","Mozilla/5.0 (Windows NT 6.3; Win64; x64) AppleWebKit/537.36 (KHTML, like Gecko) Chrome/84.0.4147.125 Safari/537.36",84,"[0.9, 0.5, 0.1]","[0.8, 0.4, 0.2]","[u'red', u'black', u'blue']","[u'left', u'middle', u'right']","[0.8, 0.4, 0.2]","[u'medium', u'high', u'low']","blue",51,"right","low","False","False",945,3600,NA
"ACPIVPK8OL94P","Tue Sep 29 2020 12:52:30 GMT-0700 (Pacific Daylight Time)","Tue Sep 29 2020 13:00:37 GMT-0700 (Pacific Daylight Time)","Mozilla/5.0 (Windows NT 6.3; Win64; x64) AppleWebKit/537.36 (KHTML, like Gecko) Chrome/84.0.4147.125 Safari/537.36",85,"[0.9, 0.5, 0.1]","[0.8, 0.4, 0.2]","[u'red', u'black', u'blue']","[u'left', u'middle', u'right']","[0.8, 0.4, 0.2]","[u'medium', u'high', u'low']","black",50,"middle","high","False","False",431,3550,NA
"ACPIVPK8OL94P","Tue Sep 29 2020 12:52:30 GMT-0700 (Pacific Daylight Time)","Tue Sep 29 2020 13:00:37 GMT-0700 (Pacific Daylight Time)","Mozilla/5.0 (Windows NT 6.3; Win64; x64) AppleWebKit/537.36 (KHTML, like Gecko) Chrome/84.0.4147.125 Safari/537.36",86,"[0.9, 0.5, 0.1]","[0.8, 0.4, 0.2]","[u'red', u'black', u'blue']","[u'left', u'middle', u'right']","[0.8, 0.4, 0.2]","[u'medium', u'high', u'low']","red",49,"left","medium","False","False",978,3500,NA
"ACPIVPK8OL94P","Tue Sep 29 2020 12:52:30 GMT-0700 (Pacific Daylight Time)","Tue Sep 29 2020 13:00:37 GMT-0700 (Pacific Daylight Time)","Mozilla/5.0 (Windows NT 6.3; Win64; x64) AppleWebKit/537.36 (KHTML, like Gecko) Chrome/84.0.4147.125 Safari/537.36",87,"[0.9, 0.5, 0.1]","[0.8, 0.4, 0.2]","[u'red', u'black', u'blue']","[u'left', u'middle', u'right']","[0.8, 0.4, 0.2]","[u'medium', u'high', u'low']","black",50,"middle","high","True","False",3031,3600,NA
"ACPIVPK8OL94P","Tue Sep 29 2020 12:52:30 GMT-0700 (Pacific Daylight Time)","Tue Sep 29 2020 13:00:37 GMT-0700 (Pacific Daylight Time)","Mozilla/5.0 (Windows NT 6.3; Win64; x64) AppleWebKit/537.36 (KHTML, like Gecko) Chrome/84.0.4147.125 Safari/537.36",88,"[0.9, 0.5, 0.1]","[0.8, 0.4, 0.2]","[u'red', u'black', u'blue']","[u'left', u'middle', u'right']","[0.8, 0.4, 0.2]","[u'medium', u'high', u'low']","blue",51,"right","low","False","False",816,3550,NA
"ACPIVPK8OL94P","Tue Sep 29 2020 12:52:30 GMT-0700 (Pacific Daylight Time)","Tue Sep 29 2020 13:00:37 GMT-0700 (Pacific Daylight Time)","Mozilla/5.0 (Windows NT 6.3; Win64; x64) AppleWebKit/537.36 (KHTML, like Gecko) Chrome/84.0.4147.125 Safari/537.36",89,"[0.9, 0.5, 0.1]","[0.8, 0.4, 0.2]","[u'red', u'black', u'blue']","[u'left', u'middle', u'right']","[0.8, 0.4, 0.2]","[u'medium', u'high', u'low']","black",50,"middle","high","False","False",898,3500,NA
"ACPIVPK8OL94P","Tue Sep 29 2020 12:52:30 GMT-0700 (Pacific Daylight Time)","Tue Sep 29 2020 13:00:37 GMT-0700 (Pacific Daylight Time)","Mozilla/5.0 (Windows NT 6.3; Win64; x64) AppleWebKit/537.36 (KHTML, like Gecko) Chrome/84.0.4147.125 Safari/537.36",90,"[0.9, 0.5, 0.1]","[0.8, 0.4, 0.2]","[u'red', u'black', u'blue']","[u'left', u'middle', u'right']","[0.8, 0.4, 0.2]","[u'medium', u'high', u'low']","red",49,"left","medium","True","False",320,3600,NA
"ACPIVPK8OL94P","Tue Sep 29 2020 12:52:30 GMT-0700 (Pacific Daylight Time)","Tue Sep 29 2020 13:00:37 GMT-0700 (Pacific Daylight Time)","Mozilla/5.0 (Windows NT 6.3; Win64; x64) AppleWebKit/537.36 (KHTML, like Gecko) Chrome/84.0.4147.125 Safari/537.36",91,"[0.9, 0.5, 0.1]","[0.8, 0.4, 0.2]","[u'red', u'black', u'blue']","[u'left', u'middle', u'right']","[0.8, 0.4, 0.2]","[u'medium', u'high', u'low']","black",50,"middle","high","True","False",1685,3700,NA
"ACPIVPK8OL94P","Tue Sep 29 2020 12:52:30 GMT-0700 (Pacific Daylight Time)","Tue Sep 29 2020 13:00:37 GMT-0700 (Pacific Daylight Time)","Mozilla/5.0 (Windows NT 6.3; Win64; x64) AppleWebKit/537.36 (KHTML, like Gecko) Chrome/84.0.4147.125 Safari/537.36",92,"[0.9, 0.5, 0.1]","[0.8, 0.4, 0.2]","[u'red', u'black', u'blue']","[u'left', u'middle', u'right']","[0.8, 0.4, 0.2]","[u'medium', u'high', u'low']","black",50,"middle","high","True","False",1233,3800,NA
"ACPIVPK8OL94P","Tue Sep 29 2020 12:52:30 GMT-0700 (Pacific Daylight Time)","Tue Sep 29 2020 13:00:37 GMT-0700 (Pacific Daylight Time)","Mozilla/5.0 (Windows NT 6.3; Win64; x64) AppleWebKit/537.36 (KHTML, like Gecko) Chrome/84.0.4147.125 Safari/537.36",93,"[0.9, 0.5, 0.1]","[0.8, 0.4, 0.2]","[u'red', u'black', u'blue']","[u'left', u'middle', u'right']","[0.8, 0.4, 0.2]","[u'medium', u'high', u'low']","blue",51,"right","low","False","False",269,3750,NA
"ACPIVPK8OL94P","Tue Sep 29 2020 12:52:30 GMT-0700 (Pacific Daylight Time)","Tue Sep 29 2020 13:00:37 GMT-0700 (Pacific Daylight Time)","Mozilla/5.0 (Windows NT 6.3; Win64; x64) AppleWebKit/537.36 (KHTML, like Gecko) Chrome/84.0.4147.125 Safari/537.36",94,"[0.9, 0.5, 0.1]","[0.8, 0.4, 0.2]","[u'red', u'black', u'blue']","[u'left', u'middle', u'right']","[0.8, 0.4, 0.2]","[u'medium', u'high', u'low']","black",50,"middle","high","True","False",1092,3850,NA
"ACPIVPK8OL94P","Tue Sep 29 2020 12:52:30 GMT-0700 (Pacific Daylight Time)","Tue Sep 29 2020 13:00:37 GMT-0700 (Pacific Daylight Time)","Mozilla/5.0 (Windows NT 6.3; Win64; x64) AppleWebKit/537.36 (KHTML, like Gecko) Chrome/84.0.4147.125 Safari/537.36",95,"[0.9, 0.5, 0.1]","[0.8, 0.4, 0.2]","[u'red', u'black', u'blue']","[u'left', u'middle', u'right']","[0.8, 0.4, 0.2]","[u'medium', u'high', u'low']","black",50,"middle","high","True","False",149,3950,NA
"ACPIVPK8OL94P","Tue Sep 29 2020 12:52:30 GMT-0700 (Pacific Daylight Time)","Tue Sep 29 2020 13:00:37 GMT-0700 (Pacific Daylight Time)","Mozilla/5.0 (Windows NT 6.3; Win64; x64) AppleWebKit/537.36 (KHTML, like Gecko) Chrome/84.0.4147.125 Safari/537.36",96,"[0.9, 0.5, 0.1]","[0.8, 0.4, 0.2]","[u'red', u'black', u'blue']","[u'left', u'middle', u'right']","[0.8, 0.4, 0.2]","[u'medium', u'high', u'low']","black",50,"middle","high","True","False",317,4050,NA
"ACPIVPK8OL94P","Tue Sep 29 2020 12:52:30 GMT-0700 (Pacific Daylight Time)","Tue Sep 29 2020 13:00:37 GMT-0700 (Pacific Daylight Time)","Mozilla/5.0 (Windows NT 6.3; Win64; x64) AppleWebKit/537.36 (KHTML, like Gecko) Chrome/84.0.4147.125 Safari/537.36",97,"[0.9, 0.5, 0.1]","[0.8, 0.4, 0.2]","[u'red', u'black', u'blue']","[u'left', u'middle', u'right']","[0.8, 0.4, 0.2]","[u'medium', u'high', u'low']","red",49,"left","medium","True","False",896,4150,NA
"ACPIVPK8OL94P","Tue Sep 29 2020 12:52:30 GMT-0700 (Pacific Daylight Time)","Tue Sep 29 2020 13:00:37 GMT-0700 (Pacific Daylight Time)","Mozilla/5.0 (Windows NT 6.3; Win64; x64) AppleWebKit/537.36 (KHTML, like Gecko) Chrome/84.0.4147.125 Safari/537.36",98,"[0.9, 0.5, 0.1]","[0.8, 0.4, 0.2]","[u'red', u'black', u'blue']","[u'left', u'middle', u'right']","[0.8, 0.4, 0.2]","[u'medium', u'high', u'low']","red",49,"left","medium","True","False",636,4250,NA
"ACPIVPK8OL94P","Tue Sep 29 2020 12:52:30 GMT-0700 (Pacific Daylight Time)","Tue Sep 29 2020 13:00:37 GMT-0700 (Pacific Daylight Time)","Mozilla/5.0 (Windows NT 6.3; Win64; x64) AppleWebKit/537.36 (KHTML, like Gecko) Chrome/84.0.4147.125 Safari/537.36",99,"[0.9, 0.5, 0.1]","[0.8, 0.4, 0.2]","[u'red', u'black', u'blue']","[u'left', u'middle', u'right']","[0.8, 0.4, 0.2]","[u'medium', u'high', u'low']","black",50,"middle","high","True","False",1238,4350,NA
"ACPIVPK8OL94P","Tue Sep 29 2020 12:52:30 GMT-0700 (Pacific Daylight Time)","Tue Sep 29 2020 13:00:37 GMT-0700 (Pacific Daylight Time)","Mozilla/5.0 (Windows NT 6.3; Win64; x64) AppleWebKit/537.36 (KHTML, like Gecko) Chrome/84.0.4147.125 Safari/537.36",100,"[0.9, 0.5, 0.1]","[0.8, 0.4, 0.2]","[u'red', u'black', u'blue']","[u'left', u'middle', u'right']","[0.8, 0.4, 0.2]","[u'medium', u'high', u'low']","black",50,"middle","high","True","False",826,4450,NA
"ACPIVPK8OL94P","Tue Sep 29 2020 12:52:30 GMT-0700 (Pacific Daylight Time)","Tue Sep 29 2020 13:00:37 GMT-0700 (Pacific Daylight Time)","Mozilla/5.0 (Windows NT 6.3; Win64; x64) AppleWebKit/537.36 (KHTML, like Gecko) Chrome/84.0.4147.125 Safari/537.36",101,"[0.9, 0.5, 0.1]","[0.8, 0.4, 0.2]","[u'red', u'black', u'blue']","[u'left', u'middle', u'right']","[0.8, 0.4, 0.2]","[u'medium', u'high', u'low']","blue",51,"right","low","True","False",65,4550,NA
"ACPIVPK8OL94P","Tue Sep 29 2020 12:52:30 GMT-0700 (Pacific Daylight Time)","Tue Sep 29 2020 13:00:37 GMT-0700 (Pacific Daylight Time)","Mozilla/5.0 (Windows NT 6.3; Win64; x64) AppleWebKit/537.36 (KHTML, like Gecko) Chrome/84.0.4147.125 Safari/537.36",102,"[0.9, 0.5, 0.1]","[0.8, 0.4, 0.2]","[u'red', u'black', u'blue']","[u'left', u'middle', u'right']","[0.8, 0.4, 0.2]","[u'medium', u'high', u'low']","blue",51,"right","low","False","False",1668,4500,NA
"ACPIVPK8OL94P","Tue Sep 29 2020 12:52:30 GMT-0700 (Pacific Daylight Time)","Tue Sep 29 2020 13:00:37 GMT-0700 (Pacific Daylight Time)","Mozilla/5.0 (Windows NT 6.3; Win64; x64) AppleWebKit/537.36 (KHTML, like Gecko) Chrome/84.0.4147.125 Safari/537.36",103,"[0.9, 0.5, 0.1]","[0.8, 0.4, 0.2]","[u'red', u'black', u'blue']","[u'left', u'middle', u'right']","[0.8, 0.4, 0.2]","[u'medium', u'high', u'low']","black",50,"middle","high","True","False",607,4600,NA
"ACPIVPK8OL94P","Tue Sep 29 2020 12:52:30 GMT-0700 (Pacific Daylight Time)","Tue Sep 29 2020 13:00:37 GMT-0700 (Pacific Daylight Time)","Mozilla/5.0 (Windows NT 6.3; Win64; x64) AppleWebKit/537.36 (KHTML, like Gecko) Chrome/84.0.4147.125 Safari/537.36",104,"[0.9, 0.5, 0.1]","[0.8, 0.4, 0.2]","[u'red', u'black', u'blue']","[u'left', u'middle', u'right']","[0.8, 0.4, 0.2]","[u'medium', u'high', u'low']","black",50,"middle","high","True","False",492,4700,NA
"ACPIVPK8OL94P","Tue Sep 29 2020 12:52:30 GMT-0700 (Pacific Daylight Time)","Tue Sep 29 2020 13:00:37 GMT-0700 (Pacific Daylight Time)","Mozilla/5.0 (Windows NT 6.3; Win64; x64) AppleWebKit/537.36 (KHTML, like Gecko) Chrome/84.0.4147.125 Safari/537.36",105,"[0.9, 0.5, 0.1]","[0.8, 0.4, 0.2]","[u'red', u'black', u'blue']","[u'left', u'middle', u'right']","[0.8, 0.4, 0.2]","[u'medium', u'high', u'low']","black",50,"middle","high","False","False",215,4650,NA
"ACPIVPK8OL94P","Tue Sep 29 2020 12:52:30 GMT-0700 (Pacific Daylight Time)","Tue Sep 29 2020 13:00:37 GMT-0700 (Pacific Daylight Time)","Mozilla/5.0 (Windows NT 6.3; Win64; x64) AppleWebKit/537.36 (KHTML, like Gecko) Chrome/84.0.4147.125 Safari/537.36",106,"[0.9, 0.5, 0.1]","[0.8, 0.4, 0.2]","[u'red', u'black', u'blue']","[u'left', u'middle', u'right']","[0.8, 0.4, 0.2]","[u'medium', u'high', u'low']","red",49,"left","medium","False","False",530,4600,NA
"ACPIVPK8OL94P","Tue Sep 29 2020 12:52:30 GMT-0700 (Pacific Daylight Time)","Tue Sep 29 2020 13:00:37 GMT-0700 (Pacific Daylight Time)","Mozilla/5.0 (Windows NT 6.3; Win64; x64) AppleWebKit/537.36 (KHTML, like Gecko) Chrome/84.0.4147.125 Safari/537.36",107,"[0.9, 0.5, 0.1]","[0.8, 0.4, 0.2]","[u'red', u'black', u'blue']","[u'left', u'middle', u'right']","[0.8, 0.4, 0.2]","[u'medium', u'high', u'low']","red",49,"left","medium","True","False",336,4700,NA
"ACPIVPK8OL94P","Tue Sep 29 2020 12:52:30 GMT-0700 (Pacific Daylight Time)","Tue Sep 29 2020 13:00:37 GMT-0700 (Pacific Daylight Time)","Mozilla/5.0 (Windows NT 6.3; Win64; x64) AppleWebKit/537.36 (KHTML, like Gecko) Chrome/84.0.4147.125 Safari/537.36",108,"[0.9, 0.5, 0.1]","[0.8, 0.4, 0.2]","[u'red', u'black', u'blue']","[u'left', u'middle', u'right']","[0.8, 0.4, 0.2]","[u'medium', u'high', u'low']","red",49,"left","medium","True","False",354,4800,NA
"ACPIVPK8OL94P","Tue Sep 29 2020 12:52:30 GMT-0700 (Pacific Daylight Time)","Tue Sep 29 2020 13:00:37 GMT-0700 (Pacific Daylight Time)","Mozilla/5.0 (Windows NT 6.3; Win64; x64) AppleWebKit/537.36 (KHTML, like Gecko) Chrome/84.0.4147.125 Safari/537.36",109,"[0.9, 0.5, 0.1]","[0.8, 0.4, 0.2]","[u'red', u'black', u'blue']","[u'left', u'middle', u'right']","[0.8, 0.4, 0.2]","[u'medium', u'high', u'low']","black",50,"middle","high","False","False",902,4750,NA
"ACPIVPK8OL94P","Tue Sep 29 2020 12:52:30 GMT-0700 (Pacific Daylight Time)","Tue Sep 29 2020 13:00:37 GMT-0700 (Pacific Daylight Time)","Mozilla/5.0 (Windows NT 6.3; Win64; x64) AppleWebKit/537.36 (KHTML, like Gecko) Chrome/84.0.4147.125 Safari/537.36",110,"[0.9, 0.5, 0.1]","[0.8, 0.4, 0.2]","[u'red', u'black', u'blue']","[u'left', u'middle', u'right']","[0.8, 0.4, 0.2]","[u'medium', u'high', u'low']","blue",51,"right","low","False","False",2190,4700,NA
"ACPIVPK8OL94P","Tue Sep 29 2020 12:52:30 GMT-0700 (Pacific Daylight Time)","Tue Sep 29 2020 13:00:37 GMT-0700 (Pacific Daylight Time)","Mozilla/5.0 (Windows NT 6.3; Win64; x64) AppleWebKit/537.36 (KHTML, like Gecko) Chrome/84.0.4147.125 Safari/537.36",111,"[0.9, 0.5, 0.1]","[0.8, 0.4, 0.2]","[u'red', u'black', u'blue']","[u'left', u'middle', u'right']","[0.8, 0.4, 0.2]","[u'medium', u'high', u'low']","black",50,"middle","high","False","False",1359,4650,NA
"ACPIVPK8OL94P","Tue Sep 29 2020 12:52:30 GMT-0700 (Pacific Daylight Time)","Tue Sep 29 2020 13:00:37 GMT-0700 (Pacific Daylight Time)","Mozilla/5.0 (Windows NT 6.3; Win64; x64) AppleWebKit/537.36 (KHTML, like Gecko) Chrome/84.0.4147.125 Safari/537.36",112,"[0.9, 0.5, 0.1]","[0.8, 0.4, 0.2]","[u'red', u'black', u'blue']","[u'left', u'middle', u'right']","[0.8, 0.4, 0.2]","[u'medium', u'high', u'low']","black",50,"middle","high","True","False",2813,4750,NA
"ACPIVPK8OL94P","Tue Sep 29 2020 12:52:30 GMT-0700 (Pacific Daylight Time)","Tue Sep 29 2020 13:00:37 GMT-0700 (Pacific Daylight Time)","Mozilla/5.0 (Windows NT 6.3; Win64; x64) AppleWebKit/537.36 (KHTML, like Gecko) Chrome/84.0.4147.125 Safari/537.36",113,"[0.9, 0.5, 0.1]","[0.8, 0.4, 0.2]","[u'red', u'black', u'blue']","[u'left', u'middle', u'right']","[0.8, 0.4, 0.2]","[u'medium', u'high', u'low']","blue",51,"right","low","True","False",1330,4850,NA
"ACPIVPK8OL94P","Tue Sep 29 2020 12:52:30 GMT-0700 (Pacific Daylight Time)","Tue Sep 29 2020 13:00:37 GMT-0700 (Pacific Daylight Time)","Mozilla/5.0 (Windows NT 6.3; Win64; x64) AppleWebKit/537.36 (KHTML, like Gecko) Chrome/84.0.4147.125 Safari/537.36",114,"[0.9, 0.5, 0.1]","[0.8, 0.4, 0.2]","[u'red', u'black', u'blue']","[u'left', u'middle', u'right']","[0.8, 0.4, 0.2]","[u'medium', u'high', u'low']","black",50,"middle","high","False","False",18,4800,NA
"ACPIVPK8OL94P","Tue Sep 29 2020 12:52:30 GMT-0700 (Pacific Daylight Time)","Tue Sep 29 2020 13:00:37 GMT-0700 (Pacific Daylight Time)","Mozilla/5.0 (Windows NT 6.3; Win64; x64) AppleWebKit/537.36 (KHTML, like Gecko) Chrome/84.0.4147.125 Safari/537.36",115,"[0.9, 0.5, 0.1]","[0.8, 0.4, 0.2]","[u'red', u'black', u'blue']","[u'left', u'middle', u'right']","[0.8, 0.4, 0.2]","[u'medium', u'high', u'low']","red",49,"left","medium","False","False",242,4750,NA
"ACPIVPK8OL94P","Tue Sep 29 2020 12:52:30 GMT-0700 (Pacific Daylight Time)","Tue Sep 29 2020 13:00:37 GMT-0700 (Pacific Daylight Time)","Mozilla/5.0 (Windows NT 6.3; Win64; x64) AppleWebKit/537.36 (KHTML, like Gecko) Chrome/84.0.4147.125 Safari/537.36",116,"[0.9, 0.5, 0.1]","[0.8, 0.4, 0.2]","[u'red', u'black', u'blue']","[u'left', u'middle', u'right']","[0.8, 0.4, 0.2]","[u'medium', u'high', u'low']","black",50,"middle","high","False","False",675,4700,NA
"ACPIVPK8OL94P","Tue Sep 29 2020 12:52:30 GMT-0700 (Pacific Daylight Time)","Tue Sep 29 2020 13:00:37 GMT-0700 (Pacific Daylight Time)","Mozilla/5.0 (Windows NT 6.3; Win64; x64) AppleWebKit/537.36 (KHTML, like Gecko) Chrome/84.0.4147.125 Safari/537.36",117,"[0.9, 0.5, 0.1]","[0.8, 0.4, 0.2]","[u'red', u'black', u'blue']","[u'left', u'middle', u'right']","[0.8, 0.4, 0.2]","[u'medium', u'high', u'low']","blue",51,"right","low","False","False",338,4650,NA
"ACPIVPK8OL94P","Tue Sep 29 2020 12:52:30 GMT-0700 (Pacific Daylight Time)","Tue Sep 29 2020 13:00:37 GMT-0700 (Pacific Daylight Time)","Mozilla/5.0 (Windows NT 6.3; Win64; x64) AppleWebKit/537.36 (KHTML, like Gecko) Chrome/84.0.4147.125 Safari/537.36",118,"[0.9, 0.5, 0.1]","[0.8, 0.4, 0.2]","[u'red', u'black', u'blue']","[u'left', u'middle', u'right']","[0.8, 0.4, 0.2]","[u'medium', u'high', u'low']","black",50,"middle","high","False","False",487,4600,NA
"ACPIVPK8OL94P","Tue Sep 29 2020 12:52:30 GMT-0700 (Pacific Daylight Time)","Tue Sep 29 2020 13:00:37 GMT-0700 (Pacific Daylight Time)","Mozilla/5.0 (Windows NT 6.3; Win64; x64) AppleWebKit/537.36 (KHTML, like Gecko) Chrome/84.0.4147.125 Safari/537.36",119,"[0.9, 0.5, 0.1]","[0.8, 0.4, 0.2]","[u'red', u'black', u'blue']","[u'left', u'middle', u'right']","[0.8, 0.4, 0.2]","[u'medium', u'high', u'low']","black",50,"middle","high","True","False",895,4700,NA
"ACPIVPK8OL94P","Tue Sep 29 2020 12:52:30 GMT-0700 (Pacific Daylight Time)","Tue Sep 29 2020 13:00:37 GMT-0700 (Pacific Daylight Time)","Mozilla/5.0 (Windows NT 6.3; Win64; x64) AppleWebKit/537.36 (KHTML, like Gecko) Chrome/84.0.4147.125 Safari/537.36",120,"[0.9, 0.5, 0.1]","[0.8, 0.4, 0.2]","[u'red', u'black', u'blue']","[u'left', u'middle', u'right']","[0.8, 0.4, 0.2]","[u'medium', u'high', u'low']","red",49,"left","medium","False","False",844,4650,NA
"ACPIVPK8OL94P","Tue Sep 29 2020 12:52:30 GMT-0700 (Pacific Daylight Time)","Tue Sep 29 2020 13:00:37 GMT-0700 (Pacific Daylight Time)","Mozilla/5.0 (Windows NT 6.3; Win64; x64) AppleWebKit/537.36 (KHTML, like Gecko) Chrome/84.0.4147.125 Safari/537.36",121,"[0.9, 0.5, 0.1]","[0.8, 0.4, 0.2]","[u'red', u'black', u'blue']","[u'left', u'middle', u'right']","[0.8, 0.4, 0.2]","[u'high', u'low', u'medium']","black",50,"middle","low","True","False",241,4750,NA
"ACPIVPK8OL94P","Tue Sep 29 2020 12:52:30 GMT-0700 (Pacific Daylight Time)","Tue Sep 29 2020 13:00:37 GMT-0700 (Pacific Daylight Time)","Mozilla/5.0 (Windows NT 6.3; Win64; x64) AppleWebKit/537.36 (KHTML, like Gecko) Chrome/84.0.4147.125 Safari/537.36",122,"[0.9, 0.5, 0.1]","[0.8, 0.4, 0.2]","[u'red', u'black', u'blue']","[u'left', u'middle', u'right']","[0.8, 0.4, 0.2]","[u'high', u'low', u'medium']","blue",51,"right","medium","True","False",269,4850,NA
"ACPIVPK8OL94P","Tue Sep 29 2020 12:52:30 GMT-0700 (Pacific Daylight Time)","Tue Sep 29 2020 13:00:37 GMT-0700 (Pacific Daylight Time)","Mozilla/5.0 (Windows NT 6.3; Win64; x64) AppleWebKit/537.36 (KHTML, like Gecko) Chrome/84.0.4147.125 Safari/537.36",123,"[0.9, 0.5, 0.1]","[0.8, 0.4, 0.2]","[u'red', u'black', u'blue']","[u'left', u'middle', u'right']","[0.8, 0.4, 0.2]","[u'high', u'low', u'medium']","black",50,"middle","low","True","False",706,4950,NA
"ACPIVPK8OL94P","Tue Sep 29 2020 12:52:30 GMT-0700 (Pacific Daylight Time)","Tue Sep 29 2020 13:00:37 GMT-0700 (Pacific Daylight Time)","Mozilla/5.0 (Windows NT 6.3; Win64; x64) AppleWebKit/537.36 (KHTML, like Gecko) Chrome/84.0.4147.125 Safari/537.36",124,"[0.9, 0.5, 0.1]","[0.8, 0.4, 0.2]","[u'red', u'black', u'blue']","[u'left', u'middle', u'right']","[0.8, 0.4, 0.2]","[u'high', u'low', u'medium']","blue",51,"right","medium","False","False",516,4900,NA
"ACPIVPK8OL94P","Tue Sep 29 2020 12:52:30 GMT-0700 (Pacific Daylight Time)","Tue Sep 29 2020 13:00:37 GMT-0700 (Pacific Daylight Time)","Mozilla/5.0 (Windows NT 6.3; Win64; x64) AppleWebKit/537.36 (KHTML, like Gecko) Chrome/84.0.4147.125 Safari/537.36",125,"[0.9, 0.5, 0.1]","[0.8, 0.4, 0.2]","[u'red', u'black', u'blue']","[u'left', u'middle', u'right']","[0.8, 0.4, 0.2]","[u'high', u'low', u'medium']","black",50,"middle","low","False","False",1872,4850,NA
"ACPIVPK8OL94P","Tue Sep 29 2020 12:52:30 GMT-0700 (Pacific Daylight Time)","Tue Sep 29 2020 13:00:37 GMT-0700 (Pacific Daylight Time)","Mozilla/5.0 (Windows NT 6.3; Win64; x64) AppleWebKit/537.36 (KHTML, like Gecko) Chrome/84.0.4147.125 Safari/537.36",126,"[0.9, 0.5, 0.1]","[0.8, 0.4, 0.2]","[u'red', u'black', u'blue']","[u'left', u'middle', u'right']","[0.8, 0.4, 0.2]","[u'high', u'low', u'medium']","black",50,"middle","low","False","False",1553,4800,NA
"ACPIVPK8OL94P","Tue Sep 29 2020 12:52:30 GMT-0700 (Pacific Daylight Time)","Tue Sep 29 2020 13:00:37 GMT-0700 (Pacific Daylight Time)","Mozilla/5.0 (Windows NT 6.3; Win64; x64) AppleWebKit/537.36 (KHTML, like Gecko) Chrome/84.0.4147.125 Safari/537.36",127,"[0.9, 0.5, 0.1]","[0.8, 0.4, 0.2]","[u'red', u'black', u'blue']","[u'left', u'middle', u'right']","[0.8, 0.4, 0.2]","[u'high', u'low', u'medium']","black",50,"middle","low","False","False",140,4750,NA
"ACPIVPK8OL94P","Tue Sep 29 2020 12:52:30 GMT-0700 (Pacific Daylight Time)","Tue Sep 29 2020 13:00:37 GMT-0700 (Pacific Daylight Time)","Mozilla/5.0 (Windows NT 6.3; Win64; x64) AppleWebKit/537.36 (KHTML, like Gecko) Chrome/84.0.4147.125 Safari/537.36",128,"[0.9, 0.5, 0.1]","[0.8, 0.4, 0.2]","[u'red', u'black', u'blue']","[u'left', u'middle', u'right']","[0.8, 0.4, 0.2]","[u'high', u'low', u'medium']","blue",51,"right","medium","True","False",541,4850,NA
"ACPIVPK8OL94P","Tue Sep 29 2020 12:52:30 GMT-0700 (Pacific Daylight Time)","Tue Sep 29 2020 13:00:37 GMT-0700 (Pacific Daylight Time)","Mozilla/5.0 (Windows NT 6.3; Win64; x64) AppleWebKit/537.36 (KHTML, like Gecko) Chrome/84.0.4147.125 Safari/537.36",129,"[0.9, 0.5, 0.1]","[0.8, 0.4, 0.2]","[u'red', u'black', u'blue']","[u'left', u'middle', u'right']","[0.8, 0.4, 0.2]","[u'high', u'low', u'medium']","blue",51,"right","medium","False","False",516,4800,NA
"ACPIVPK8OL94P","Tue Sep 29 2020 12:52:30 GMT-0700 (Pacific Daylight Time)","Tue Sep 29 2020 13:00:37 GMT-0700 (Pacific Daylight Time)","Mozilla/5.0 (Windows NT 6.3; Win64; x64) AppleWebKit/537.36 (KHTML, like Gecko) Chrome/84.0.4147.125 Safari/537.36",130,"[0.9, 0.5, 0.1]","[0.8, 0.4, 0.2]","[u'red', u'black', u'blue']","[u'left', u'middle', u'right']","[0.8, 0.4, 0.2]","[u'high', u'low', u'medium']","black",50,"middle","low","False","False",333,4750,NA
"ACPIVPK8OL94P","Tue Sep 29 2020 12:52:30 GMT-0700 (Pacific Daylight Time)","Tue Sep 29 2020 13:00:37 GMT-0700 (Pacific Daylight Time)","Mozilla/5.0 (Windows NT 6.3; Win64; x64) AppleWebKit/537.36 (KHTML, like Gecko) Chrome/84.0.4147.125 Safari/537.36",131,"[0.9, 0.5, 0.1]","[0.8, 0.4, 0.2]","[u'red', u'black', u'blue']","[u'left', u'middle', u'right']","[0.8, 0.4, 0.2]","[u'high', u'low', u'medium']","red",49,"left","high","True","False",490,4850,NA
"ACPIVPK8OL94P","Tue Sep 29 2020 12:52:30 GMT-0700 (Pacific Daylight Time)","Tue Sep 29 2020 13:00:37 GMT-0700 (Pacific Daylight Time)","Mozilla/5.0 (Windows NT 6.3; Win64; x64) AppleWebKit/537.36 (KHTML, like Gecko) Chrome/84.0.4147.125 Safari/537.36",132,"[0.9, 0.5, 0.1]","[0.8, 0.4, 0.2]","[u'red', u'black', u'blue']","[u'left', u'middle', u'right']","[0.8, 0.4, 0.2]","[u'high', u'low', u'medium']","black",50,"middle","low","False","False",775,4800,NA
"ACPIVPK8OL94P","Tue Sep 29 2020 12:52:30 GMT-0700 (Pacific Daylight Time)","Tue Sep 29 2020 13:00:37 GMT-0700 (Pacific Daylight Time)","Mozilla/5.0 (Windows NT 6.3; Win64; x64) AppleWebKit/537.36 (KHTML, like Gecko) Chrome/84.0.4147.125 Safari/537.36",133,"[0.9, 0.5, 0.1]","[0.8, 0.4, 0.2]","[u'red', u'black', u'blue']","[u'left', u'middle', u'right']","[0.8, 0.4, 0.2]","[u'high', u'low', u'medium']","black",50,"middle","low","False","False",236,4750,NA
"ACPIVPK8OL94P","Tue Sep 29 2020 12:52:30 GMT-0700 (Pacific Daylight Time)","Tue Sep 29 2020 13:00:37 GMT-0700 (Pacific Daylight Time)","Mozilla/5.0 (Windows NT 6.3; Win64; x64) AppleWebKit/537.36 (KHTML, like Gecko) Chrome/84.0.4147.125 Safari/537.36",134,"[0.9, 0.5, 0.1]","[0.8, 0.4, 0.2]","[u'red', u'black', u'blue']","[u'left', u'middle', u'right']","[0.8, 0.4, 0.2]","[u'high', u'low', u'medium']","black",50,"middle","low","False","False",1244,4700,NA
"ACPIVPK8OL94P","Tue Sep 29 2020 12:52:30 GMT-0700 (Pacific Daylight Time)","Tue Sep 29 2020 13:00:37 GMT-0700 (Pacific Daylight Time)","Mozilla/5.0 (Windows NT 6.3; Win64; x64) AppleWebKit/537.36 (KHTML, like Gecko) Chrome/84.0.4147.125 Safari/537.36",135,"[0.9, 0.5, 0.1]","[0.8, 0.4, 0.2]","[u'red', u'black', u'blue']","[u'left', u'middle', u'right']","[0.8, 0.4, 0.2]","[u'high', u'low', u'medium']","black",50,"middle","low","False","False",14,4650,NA
"ACPIVPK8OL94P","Tue Sep 29 2020 12:52:30 GMT-0700 (Pacific Daylight Time)","Tue Sep 29 2020 13:00:37 GMT-0700 (Pacific Daylight Time)","Mozilla/5.0 (Windows NT 6.3; Win64; x64) AppleWebKit/537.36 (KHTML, like Gecko) Chrome/84.0.4147.125 Safari/537.36",136,"[0.9, 0.5, 0.1]","[0.8, 0.4, 0.2]","[u'red', u'black', u'blue']","[u'left', u'middle', u'right']","[0.8, 0.4, 0.2]","[u'high', u'low', u'medium']","blue",51,"right","medium","True","False",929,4750,NA
"ACPIVPK8OL94P","Tue Sep 29 2020 12:52:30 GMT-0700 (Pacific Daylight Time)","Tue Sep 29 2020 13:00:37 GMT-0700 (Pacific Daylight Time)","Mozilla/5.0 (Windows NT 6.3; Win64; x64) AppleWebKit/537.36 (KHTML, like Gecko) Chrome/84.0.4147.125 Safari/537.36",137,"[0.9, 0.5, 0.1]","[0.8, 0.4, 0.2]","[u'red', u'black', u'blue']","[u'left', u'middle', u'right']","[0.8, 0.4, 0.2]","[u'high', u'low', u'medium']","blue",51,"right","medium","True","False",246,4850,NA
"ACPIVPK8OL94P","Tue Sep 29 2020 12:52:30 GMT-0700 (Pacific Daylight Time)","Tue Sep 29 2020 13:00:37 GMT-0700 (Pacific Daylight Time)","Mozilla/5.0 (Windows NT 6.3; Win64; x64) AppleWebKit/537.36 (KHTML, like Gecko) Chrome/84.0.4147.125 Safari/537.36",138,"[0.9, 0.5, 0.1]","[0.8, 0.4, 0.2]","[u'red', u'black', u'blue']","[u'left', u'middle', u'right']","[0.8, 0.4, 0.2]","[u'high', u'low', u'medium']","black",50,"middle","low","False","False",109,4800,NA
"ACPIVPK8OL94P","Tue Sep 29 2020 12:52:30 GMT-0700 (Pacific Daylight Time)","Tue Sep 29 2020 13:00:37 GMT-0700 (Pacific Daylight Time)","Mozilla/5.0 (Windows NT 6.3; Win64; x64) AppleWebKit/537.36 (KHTML, like Gecko) Chrome/84.0.4147.125 Safari/537.36",139,"[0.9, 0.5, 0.1]","[0.8, 0.4, 0.2]","[u'red', u'black', u'blue']","[u'left', u'middle', u'right']","[0.8, 0.4, 0.2]","[u'high', u'low', u'medium']","red",49,"left","high","False","False",698,4750,NA
"ACPIVPK8OL94P","Tue Sep 29 2020 12:52:30 GMT-0700 (Pacific Daylight Time)","Tue Sep 29 2020 13:00:37 GMT-0700 (Pacific Daylight Time)","Mozilla/5.0 (Windows NT 6.3; Win64; x64) AppleWebKit/537.36 (KHTML, like Gecko) Chrome/84.0.4147.125 Safari/537.36",140,"[0.9, 0.5, 0.1]","[0.8, 0.4, 0.2]","[u'red', u'black', u'blue']","[u'left', u'middle', u'right']","[0.8, 0.4, 0.2]","[u'high', u'low', u'medium']","black",50,"middle","low","False","False",790,4700,NA
"ACPIVPK8OL94P","Tue Sep 29 2020 12:52:30 GMT-0700 (Pacific Daylight Time)","Tue Sep 29 2020 13:00:37 GMT-0700 (Pacific Daylight Time)","Mozilla/5.0 (Windows NT 6.3; Win64; x64) AppleWebKit/537.36 (KHTML, like Gecko) Chrome/84.0.4147.125 Safari/537.36",141,"[0.9, 0.5, 0.1]","[0.8, 0.4, 0.2]","[u'red', u'black', u'blue']","[u'left', u'middle', u'right']","[0.8, 0.4, 0.2]","[u'high', u'low', u'medium']","blue",51,"right","medium","True","False",1055,4800,NA
"ACPIVPK8OL94P","Tue Sep 29 2020 12:52:30 GMT-0700 (Pacific Daylight Time)","Tue Sep 29 2020 13:00:37 GMT-0700 (Pacific Daylight Time)","Mozilla/5.0 (Windows NT 6.3; Win64; x64) AppleWebKit/537.36 (KHTML, like Gecko) Chrome/84.0.4147.125 Safari/537.36",142,"[0.9, 0.5, 0.1]","[0.8, 0.4, 0.2]","[u'red', u'black', u'blue']","[u'left', u'middle', u'right']","[0.8, 0.4, 0.2]","[u'high', u'low', u'medium']","black",50,"middle","low","False","False",375,4750,NA
"ACPIVPK8OL94P","Tue Sep 29 2020 12:52:30 GMT-0700 (Pacific Daylight Time)","Tue Sep 29 2020 13:00:37 GMT-0700 (Pacific Daylight Time)","Mozilla/5.0 (Windows NT 6.3; Win64; x64) AppleWebKit/537.36 (KHTML, like Gecko) Chrome/84.0.4147.125 Safari/537.36",143,"[0.9, 0.5, 0.1]","[0.8, 0.4, 0.2]","[u'red', u'black', u'blue']","[u'left', u'middle', u'right']","[0.8, 0.4, 0.2]","[u'high', u'low', u'medium']","black",50,"middle","low","False","False",52,4700,NA
"ACPIVPK8OL94P","Tue Sep 29 2020 12:52:30 GMT-0700 (Pacific Daylight Time)","Tue Sep 29 2020 13:00:37 GMT-0700 (Pacific Daylight Time)","Mozilla/5.0 (Windows NT 6.3; Win64; x64) AppleWebKit/537.36 (KHTML, like Gecko) Chrome/84.0.4147.125 Safari/537.36",144,"[0.9, 0.5, 0.1]","[0.8, 0.4, 0.2]","[u'red', u'black', u'blue']","[u'left', u'middle', u'right']","[0.8, 0.4, 0.2]","[u'high', u'low', u'medium']","blue",51,"right","medium","True","False",731,4800,NA
"ACPIVPK8OL94P","Tue Sep 29 2020 12:52:30 GMT-0700 (Pacific Daylight Time)","Tue Sep 29 2020 13:00:37 GMT-0700 (Pacific Daylight Time)","Mozilla/5.0 (Windows NT 6.3; Win64; x64) AppleWebKit/537.36 (KHTML, like Gecko) Chrome/84.0.4147.125 Safari/537.36",145,"[0.9, 0.5, 0.1]","[0.8, 0.4, 0.2]","[u'red', u'black', u'blue']","[u'left', u'middle', u'right']","[0.8, 0.4, 0.2]","[u'high', u'low', u'medium']","black",50,"middle","low","True","False",969,4900,NA
"ACPIVPK8OL94P","Tue Sep 29 2020 12:52:30 GMT-0700 (Pacific Daylight Time)","Tue Sep 29 2020 13:00:37 GMT-0700 (Pacific Daylight Time)","Mozilla/5.0 (Windows NT 6.3; Win64; x64) AppleWebKit/537.36 (KHTML, like Gecko) Chrome/84.0.4147.125 Safari/537.36",146,"[0.9, 0.5, 0.1]","[0.8, 0.4, 0.2]","[u'red', u'black', u'blue']","[u'left', u'middle', u'right']","[0.8, 0.4, 0.2]","[u'high', u'low', u'medium']","black",50,"middle","low","False","False",526,4850,NA
"ACPIVPK8OL94P","Tue Sep 29 2020 12:52:30 GMT-0700 (Pacific Daylight Time)","Tue Sep 29 2020 13:00:37 GMT-0700 (Pacific Daylight Time)","Mozilla/5.0 (Windows NT 6.3; Win64; x64) AppleWebKit/537.36 (KHTML, like Gecko) Chrome/84.0.4147.125 Safari/537.36",147,"[0.9, 0.5, 0.1]","[0.8, 0.4, 0.2]","[u'red', u'black', u'blue']","[u'left', u'middle', u'right']","[0.8, 0.4, 0.2]","[u'high', u'low', u'medium']","blue",51,"right","medium","False","False",912,4800,NA
"ACPIVPK8OL94P","Tue Sep 29 2020 12:52:30 GMT-0700 (Pacific Daylight Time)","Tue Sep 29 2020 13:00:37 GMT-0700 (Pacific Daylight Time)","Mozilla/5.0 (Windows NT 6.3; Win64; x64) AppleWebKit/537.36 (KHTML, like Gecko) Chrome/84.0.4147.125 Safari/537.36",148,"[0.9, 0.5, 0.1]","[0.8, 0.4, 0.2]","[u'red', u'black', u'blue']","[u'left', u'middle', u'right']","[0.8, 0.4, 0.2]","[u'high', u'low', u'medium']","black",50,"middle","low","False","False",882,4750,NA
"ACPIVPK8OL94P","Tue Sep 29 2020 12:52:30 GMT-0700 (Pacific Daylight Time)","Tue Sep 29 2020 13:00:37 GMT-0700 (Pacific Daylight Time)","Mozilla/5.0 (Windows NT 6.3; Win64; x64) AppleWebKit/537.36 (KHTML, like Gecko) Chrome/84.0.4147.125 Safari/537.36",149,"[0.9, 0.5, 0.1]","[0.8, 0.4, 0.2]","[u'red', u'black', u'blue']","[u'left', u'middle', u'right']","[0.8, 0.4, 0.2]","[u'high', u'low', u'medium']","red",49,"left","high","True","False",824,4850,NA
"ACPIVPK8OL94P","Tue Sep 29 2020 12:52:30 GMT-0700 (Pacific Daylight Time)","Tue Sep 29 2020 13:00:37 GMT-0700 (Pacific Daylight Time)","Mozilla/5.0 (Windows NT 6.3; Win64; x64) AppleWebKit/537.36 (KHTML, like Gecko) Chrome/84.0.4147.125 Safari/537.36",150,"[0.9, 0.5, 0.1]","[0.8, 0.4, 0.2]","[u'red', u'black', u'blue']","[u'left', u'middle', u'right']","[0.8, 0.4, 0.2]","[u'high', u'low', u'medium']","black",50,"middle","low","False","False",1060,4800,NA
"ACPIVPK8OL94P","Tue Sep 29 2020 12:52:30 GMT-0700 (Pacific Daylight Time)","Tue Sep 29 2020 13:00:37 GMT-0700 (Pacific Daylight Time)","Mozilla/5.0 (Windows NT 6.3; Win64; x64) AppleWebKit/537.36 (KHTML, like Gecko) Chrome/84.0.4147.125 Safari/537.36",151,"[0.9, 0.5, 0.1]","[0.8, 0.4, 0.2]","[u'red', u'black', u'blue']","[u'left', u'middle', u'right']","[0.8, 0.4, 0.2]","[u'high', u'low', u'medium']","blue",51,"right","medium","True","False",1445,4900,NA
"ACPIVPK8OL94P","Tue Sep 29 2020 12:52:30 GMT-0700 (Pacific Daylight Time)","Tue Sep 29 2020 13:00:37 GMT-0700 (Pacific Daylight Time)","Mozilla/5.0 (Windows NT 6.3; Win64; x64) AppleWebKit/537.36 (KHTML, like Gecko) Chrome/84.0.4147.125 Safari/537.36",152,"[0.9, 0.5, 0.1]","[0.8, 0.4, 0.2]","[u'red', u'black', u'blue']","[u'left', u'middle', u'right']","[0.8, 0.4, 0.2]","[u'high', u'low', u'medium']","black",50,"middle","low","False","False",792,4850,NA
"ACPIVPK8OL94P","Tue Sep 29 2020 12:52:30 GMT-0700 (Pacific Daylight Time)","Tue Sep 29 2020 13:00:37 GMT-0700 (Pacific Daylight Time)","Mozilla/5.0 (Windows NT 6.3; Win64; x64) AppleWebKit/537.36 (KHTML, like Gecko) Chrome/84.0.4147.125 Safari/537.36",153,"[0.9, 0.5, 0.1]","[0.8, 0.4, 0.2]","[u'red', u'black', u'blue']","[u'left', u'middle', u'right']","[0.8, 0.4, 0.2]","[u'high', u'low', u'medium']","black",50,"middle","low","False","False",34,4800,NA
"ACPIVPK8OL94P","Tue Sep 29 2020 12:52:30 GMT-0700 (Pacific Daylight Time)","Tue Sep 29 2020 13:00:37 GMT-0700 (Pacific Daylight Time)","Mozilla/5.0 (Windows NT 6.3; Win64; x64) AppleWebKit/537.36 (KHTML, like Gecko) Chrome/84.0.4147.125 Safari/537.36",154,"[0.9, 0.5, 0.1]","[0.8, 0.4, 0.2]","[u'red', u'black', u'blue']","[u'left', u'middle', u'right']","[0.8, 0.4, 0.2]","[u'high', u'low', u'medium']","red",49,"left","high","False","False",1076,4750,NA
"ACPIVPK8OL94P","Tue Sep 29 2020 12:52:30 GMT-0700 (Pacific Daylight Time)","Tue Sep 29 2020 13:00:37 GMT-0700 (Pacific Daylight Time)","Mozilla/5.0 (Windows NT 6.3; Win64; x64) AppleWebKit/537.36 (KHTML, like Gecko) Chrome/84.0.4147.125 Safari/537.36",155,"[0.9, 0.5, 0.1]","[0.8, 0.4, 0.2]","[u'red', u'black', u'blue']","[u'left', u'middle', u'right']","[0.8, 0.4, 0.2]","[u'high', u'low', u'medium']","black",50,"middle","low","False","False",888,4700,NA
"ACPIVPK8OL94P","Tue Sep 29 2020 12:52:30 GMT-0700 (Pacific Daylight Time)","Tue Sep 29 2020 13:00:37 GMT-0700 (Pacific Daylight Time)","Mozilla/5.0 (Windows NT 6.3; Win64; x64) AppleWebKit/537.36 (KHTML, like Gecko) Chrome/84.0.4147.125 Safari/537.36",156,"[0.9, 0.5, 0.1]","[0.8, 0.4, 0.2]","[u'red', u'black', u'blue']","[u'left', u'middle', u'right']","[0.8, 0.4, 0.2]","[u'high', u'low', u'medium']","blue",51,"right","medium","True","False",661,4800,NA
"ACPIVPK8OL94P","Tue Sep 29 2020 12:52:30 GMT-0700 (Pacific Daylight Time)","Tue Sep 29 2020 13:00:37 GMT-0700 (Pacific Daylight Time)","Mozilla/5.0 (Windows NT 6.3; Win64; x64) AppleWebKit/537.36 (KHTML, like Gecko) Chrome/84.0.4147.125 Safari/537.36",157,"[0.9, 0.5, 0.1]","[0.8, 0.4, 0.2]","[u'red', u'black', u'blue']","[u'left', u'middle', u'right']","[0.8, 0.4, 0.2]","[u'high', u'low', u'medium']","black",50,"middle","low","False","False",266,4750,NA
"ACPIVPK8OL94P","Tue Sep 29 2020 12:52:30 GMT-0700 (Pacific Daylight Time)","Tue Sep 29 2020 13:00:37 GMT-0700 (Pacific Daylight Time)","Mozilla/5.0 (Windows NT 6.3; Win64; x64) AppleWebKit/537.36 (KHTML, like Gecko) Chrome/84.0.4147.125 Safari/537.36",158,"[0.9, 0.5, 0.1]","[0.8, 0.4, 0.2]","[u'red', u'black', u'blue']","[u'left', u'middle', u'right']","[0.8, 0.4, 0.2]","[u'high', u'low', u'medium']","red",49,"left","high","False","False",798,4700,NA
"ACPIVPK8OL94P","Tue Sep 29 2020 12:52:30 GMT-0700 (Pacific Daylight Time)","Tue Sep 29 2020 13:00:37 GMT-0700 (Pacific Daylight Time)","Mozilla/5.0 (Windows NT 6.3; Win64; x64) AppleWebKit/537.36 (KHTML, like Gecko) Chrome/84.0.4147.125 Safari/537.36",159,"[0.9, 0.5, 0.1]","[0.8, 0.4, 0.2]","[u'red', u'black', u'blue']","[u'left', u'middle', u'right']","[0.8, 0.4, 0.2]","[u'high', u'low', u'medium']","blue",51,"right","medium","False","False",1060,4650,NA
"ACPIVPK8OL94P","Tue Sep 29 2020 12:52:30 GMT-0700 (Pacific Daylight Time)","Tue Sep 29 2020 13:00:37 GMT-0700 (Pacific Daylight Time)","Mozilla/5.0 (Windows NT 6.3; Win64; x64) AppleWebKit/537.36 (KHTML, like Gecko) Chrome/84.0.4147.125 Safari/537.36",160,"[0.9, 0.5, 0.1]","[0.8, 0.4, 0.2]","[u'red', u'black', u'blue']","[u'left', u'middle', u'right']","[0.8, 0.4, 0.2]","[u'high', u'low', u'medium']","black",50,"middle","low","True","False",821,4750,NA
