"src_subject_id","start_time","end_time","browser","index","first_half_probabilities","second_half_probabilities","deck_color","deck_position","deck_probabilities","deck_contingencies","response_color","key_press","response_position","response_probability","reward_type","trial_type","rt","reward_tally","exclusion_reason"
"A36ZRUGMKQA5KO","Wed Sep 30 2020 10:11:07 GMT-0700 (Pacific Daylight Time)","Wed Sep 30 2020 10:20:49 GMT-0700 (Pacific Daylight Time)","Mozilla/5.0 (X11; CrOS x86_64 13310.91.0) AppleWebKit/537.36 (KHTML, like Gecko) Chrome/85.0.4183.131 Safari/537.36",1,"[0.9, 0.5, 0.1]","[0.8, 0.4, 0.2]","[u'black', u'red', u'blue']","[u'left', u'middle', u'right']","[0.9, 0.5, 0.1]","[u'medium', u'low', u'high']","black",49,"left","medium","False","False",1293,-50,NA
"A36ZRUGMKQA5KO","Wed Sep 30 2020 10:11:07 GMT-0700 (Pacific Daylight Time)","Wed Sep 30 2020 10:20:49 GMT-0700 (Pacific Daylight Time)","Mozilla/5.0 (X11; CrOS x86_64 13310.91.0) AppleWebKit/537.36 (KHTML, like Gecko) Chrome/85.0.4183.131 Safari/537.36",2,"[0.9, 0.5, 0.1]","[0.8, 0.4, 0.2]","[u'black', u'red', u'blue']","[u'left', u'middle', u'right']","[0.9, 0.5, 0.1]","[u'medium', u'low', u'high']","red",50,"middle","low","False","False",618,-100,NA
"A36ZRUGMKQA5KO","Wed Sep 30 2020 10:11:07 GMT-0700 (Pacific Daylight Time)","Wed Sep 30 2020 10:20:49 GMT-0700 (Pacific Daylight Time)","Mozilla/5.0 (X11; CrOS x86_64 13310.91.0) AppleWebKit/537.36 (KHTML, like Gecko) Chrome/85.0.4183.131 Safari/537.36",3,"[0.9, 0.5, 0.1]","[0.8, 0.4, 0.2]","[u'black', u'red', u'blue']","[u'left', u'middle', u'right']","[0.9, 0.5, 0.1]","[u'medium', u'low', u'high']","blue",51,"right","high","True","False",457,0,NA
"A36ZRUGMKQA5KO","Wed Sep 30 2020 10:11:07 GMT-0700 (Pacific Daylight Time)","Wed Sep 30 2020 10:20:49 GMT-0700 (Pacific Daylight Time)","Mozilla/5.0 (X11; CrOS x86_64 13310.91.0) AppleWebKit/537.36 (KHTML, like Gecko) Chrome/85.0.4183.131 Safari/537.36",4,"[0.9, 0.5, 0.1]","[0.8, 0.4, 0.2]","[u'black', u'red', u'blue']","[u'left', u'middle', u'right']","[0.9, 0.5, 0.1]","[u'medium', u'low', u'high']","blue",51,"right","high","True","False",456,100,NA
"A36ZRUGMKQA5KO","Wed Sep 30 2020 10:11:07 GMT-0700 (Pacific Daylight Time)","Wed Sep 30 2020 10:20:49 GMT-0700 (Pacific Daylight Time)","Mozilla/5.0 (X11; CrOS x86_64 13310.91.0) AppleWebKit/537.36 (KHTML, like Gecko) Chrome/85.0.4183.131 Safari/537.36",5,"[0.9, 0.5, 0.1]","[0.8, 0.4, 0.2]","[u'black', u'red', u'blue']","[u'left', u'middle', u'right']","[0.9, 0.5, 0.1]","[u'medium', u'low', u'high']","blue",51,"right","high","True","False",680,200,NA
"A36ZRUGMKQA5KO","Wed Sep 30 2020 10:11:07 GMT-0700 (Pacific Daylight Time)","Wed Sep 30 2020 10:20:49 GMT-0700 (Pacific Daylight Time)","Mozilla/5.0 (X11; CrOS x86_64 13310.91.0) AppleWebKit/537.36 (KHTML, like Gecko) Chrome/85.0.4183.131 Safari/537.36",6,"[0.9, 0.5, 0.1]","[0.8, 0.4, 0.2]","[u'black', u'red', u'blue']","[u'left', u'middle', u'right']","[0.9, 0.5, 0.1]","[u'medium', u'low', u'high']","blue",51,"right","high","True","False",507,300,NA
"A36ZRUGMKQA5KO","Wed Sep 30 2020 10:11:07 GMT-0700 (Pacific Daylight Time)","Wed Sep 30 2020 10:20:49 GMT-0700 (Pacific Daylight Time)","Mozilla/5.0 (X11; CrOS x86_64 13310.91.0) AppleWebKit/537.36 (KHTML, like Gecko) Chrome/85.0.4183.131 Safari/537.36",7,"[0.9, 0.5, 0.1]","[0.8, 0.4, 0.2]","[u'black', u'red', u'blue']","[u'left', u'middle', u'right']","[0.9, 0.5, 0.1]","[u'medium', u'low', u'high']","blue",51,"right","high","True","False",620,400,NA
"A36ZRUGMKQA5KO","Wed Sep 30 2020 10:11:07 GMT-0700 (Pacific Daylight Time)","Wed Sep 30 2020 10:20:49 GMT-0700 (Pacific Daylight Time)","Mozilla/5.0 (X11; CrOS x86_64 13310.91.0) AppleWebKit/537.36 (KHTML, like Gecko) Chrome/85.0.4183.131 Safari/537.36",8,"[0.9, 0.5, 0.1]","[0.8, 0.4, 0.2]","[u'black', u'red', u'blue']","[u'left', u'middle', u'right']","[0.9, 0.5, 0.1]","[u'medium', u'low', u'high']","blue",51,"right","high","True","False",437,500,NA
"A36ZRUGMKQA5KO","Wed Sep 30 2020 10:11:07 GMT-0700 (Pacific Daylight Time)","Wed Sep 30 2020 10:20:49 GMT-0700 (Pacific Daylight Time)","Mozilla/5.0 (X11; CrOS x86_64 13310.91.0) AppleWebKit/537.36 (KHTML, like Gecko) Chrome/85.0.4183.131 Safari/537.36",9,"[0.9, 0.5, 0.1]","[0.8, 0.4, 0.2]","[u'black', u'red', u'blue']","[u'left', u'middle', u'right']","[0.9, 0.5, 0.1]","[u'medium', u'low', u'high']","blue",51,"right","high","True","False",389,600,NA
"A36ZRUGMKQA5KO","Wed Sep 30 2020 10:11:07 GMT-0700 (Pacific Daylight Time)","Wed Sep 30 2020 10:20:49 GMT-0700 (Pacific Daylight Time)","Mozilla/5.0 (X11; CrOS x86_64 13310.91.0) AppleWebKit/537.36 (KHTML, like Gecko) Chrome/85.0.4183.131 Safari/537.36",10,"[0.9, 0.5, 0.1]","[0.8, 0.4, 0.2]","[u'black', u'red', u'blue']","[u'left', u'middle', u'right']","[0.9, 0.5, 0.1]","[u'medium', u'low', u'high']","blue",51,"right","high","False","False",386,550,NA
"A36ZRUGMKQA5KO","Wed Sep 30 2020 10:11:07 GMT-0700 (Pacific Daylight Time)","Wed Sep 30 2020 10:20:49 GMT-0700 (Pacific Daylight Time)","Mozilla/5.0 (X11; CrOS x86_64 13310.91.0) AppleWebKit/537.36 (KHTML, like Gecko) Chrome/85.0.4183.131 Safari/537.36",11,"[0.9, 0.5, 0.1]","[0.8, 0.4, 0.2]","[u'black', u'red', u'blue']","[u'left', u'middle', u'right']","[0.9, 0.5, 0.1]","[u'medium', u'low', u'high']","red",50,"middle","low","False","False",450,500,NA
"A36ZRUGMKQA5KO","Wed Sep 30 2020 10:11:07 GMT-0700 (Pacific Daylight Time)","Wed Sep 30 2020 10:20:49 GMT-0700 (Pacific Daylight Time)","Mozilla/5.0 (X11; CrOS x86_64 13310.91.0) AppleWebKit/537.36 (KHTML, like Gecko) Chrome/85.0.4183.131 Safari/537.36",12,"[0.9, 0.5, 0.1]","[0.8, 0.4, 0.2]","[u'black', u'red', u'blue']","[u'left', u'middle', u'right']","[0.9, 0.5, 0.1]","[u'medium', u'low', u'high']","black",49,"left","medium","True","False",335,600,NA
"A36ZRUGMKQA5KO","Wed Sep 30 2020 10:11:07 GMT-0700 (Pacific Daylight Time)","Wed Sep 30 2020 10:20:49 GMT-0700 (Pacific Daylight Time)","Mozilla/5.0 (X11; CrOS x86_64 13310.91.0) AppleWebKit/537.36 (KHTML, like Gecko) Chrome/85.0.4183.131 Safari/537.36",13,"[0.9, 0.5, 0.1]","[0.8, 0.4, 0.2]","[u'black', u'red', u'blue']","[u'left', u'middle', u'right']","[0.9, 0.5, 0.1]","[u'medium', u'low', u'high']","black",49,"left","medium","False","False",466,550,NA
"A36ZRUGMKQA5KO","Wed Sep 30 2020 10:11:07 GMT-0700 (Pacific Daylight Time)","Wed Sep 30 2020 10:20:49 GMT-0700 (Pacific Daylight Time)","Mozilla/5.0 (X11; CrOS x86_64 13310.91.0) AppleWebKit/537.36 (KHTML, like Gecko) Chrome/85.0.4183.131 Safari/537.36",14,"[0.9, 0.5, 0.1]","[0.8, 0.4, 0.2]","[u'black', u'red', u'blue']","[u'left', u'middle', u'right']","[0.9, 0.5, 0.1]","[u'medium', u'low', u'high']","red",50,"middle","low","False","False",308,500,NA
"A36ZRUGMKQA5KO","Wed Sep 30 2020 10:11:07 GMT-0700 (Pacific Daylight Time)","Wed Sep 30 2020 10:20:49 GMT-0700 (Pacific Daylight Time)","Mozilla/5.0 (X11; CrOS x86_64 13310.91.0) AppleWebKit/537.36 (KHTML, like Gecko) Chrome/85.0.4183.131 Safari/537.36",15,"[0.9, 0.5, 0.1]","[0.8, 0.4, 0.2]","[u'black', u'red', u'blue']","[u'left', u'middle', u'right']","[0.9, 0.5, 0.1]","[u'medium', u'low', u'high']","blue",51,"right","high","True","False",387,600,NA
"A36ZRUGMKQA5KO","Wed Sep 30 2020 10:11:07 GMT-0700 (Pacific Daylight Time)","Wed Sep 30 2020 10:20:49 GMT-0700 (Pacific Daylight Time)","Mozilla/5.0 (X11; CrOS x86_64 13310.91.0) AppleWebKit/537.36 (KHTML, like Gecko) Chrome/85.0.4183.131 Safari/537.36",16,"[0.9, 0.5, 0.1]","[0.8, 0.4, 0.2]","[u'black', u'red', u'blue']","[u'left', u'middle', u'right']","[0.9, 0.5, 0.1]","[u'medium', u'low', u'high']","blue",51,"right","high","True","False",355,700,NA
"A36ZRUGMKQA5KO","Wed Sep 30 2020 10:11:07 GMT-0700 (Pacific Daylight Time)","Wed Sep 30 2020 10:20:49 GMT-0700 (Pacific Daylight Time)","Mozilla/5.0 (X11; CrOS x86_64 13310.91.0) AppleWebKit/537.36 (KHTML, like Gecko) Chrome/85.0.4183.131 Safari/537.36",17,"[0.9, 0.5, 0.1]","[0.8, 0.4, 0.2]","[u'black', u'red', u'blue']","[u'left', u'middle', u'right']","[0.9, 0.5, 0.1]","[u'medium', u'low', u'high']","blue",51,"right","high","True","False",325,800,NA
"A36ZRUGMKQA5KO","Wed Sep 30 2020 10:11:07 GMT-0700 (Pacific Daylight Time)","Wed Sep 30 2020 10:20:49 GMT-0700 (Pacific Daylight Time)","Mozilla/5.0 (X11; CrOS x86_64 13310.91.0) AppleWebKit/537.36 (KHTML, like Gecko) Chrome/85.0.4183.131 Safari/537.36",18,"[0.9, 0.5, 0.1]","[0.8, 0.4, 0.2]","[u'black', u'red', u'blue']","[u'left', u'middle', u'right']","[0.9, 0.5, 0.1]","[u'medium', u'low', u'high']","blue",51,"right","high","True","False",395,900,NA
"A36ZRUGMKQA5KO","Wed Sep 30 2020 10:11:07 GMT-0700 (Pacific Daylight Time)","Wed Sep 30 2020 10:20:49 GMT-0700 (Pacific Daylight Time)","Mozilla/5.0 (X11; CrOS x86_64 13310.91.0) AppleWebKit/537.36 (KHTML, like Gecko) Chrome/85.0.4183.131 Safari/537.36",19,"[0.9, 0.5, 0.1]","[0.8, 0.4, 0.2]","[u'black', u'red', u'blue']","[u'left', u'middle', u'right']","[0.9, 0.5, 0.1]","[u'medium', u'low', u'high']","blue",51,"right","high","True","False",385,1000,NA
"A36ZRUGMKQA5KO","Wed Sep 30 2020 10:11:07 GMT-0700 (Pacific Daylight Time)","Wed Sep 30 2020 10:20:49 GMT-0700 (Pacific Daylight Time)","Mozilla/5.0 (X11; CrOS x86_64 13310.91.0) AppleWebKit/537.36 (KHTML, like Gecko) Chrome/85.0.4183.131 Safari/537.36",20,"[0.9, 0.5, 0.1]","[0.8, 0.4, 0.2]","[u'black', u'red', u'blue']","[u'left', u'middle', u'right']","[0.9, 0.5, 0.1]","[u'medium', u'low', u'high']","blue",51,"right","high","True","False",350,1100,NA
"A36ZRUGMKQA5KO","Wed Sep 30 2020 10:11:07 GMT-0700 (Pacific Daylight Time)","Wed Sep 30 2020 10:20:49 GMT-0700 (Pacific Daylight Time)","Mozilla/5.0 (X11; CrOS x86_64 13310.91.0) AppleWebKit/537.36 (KHTML, like Gecko) Chrome/85.0.4183.131 Safari/537.36",21,"[0.9, 0.5, 0.1]","[0.8, 0.4, 0.2]","[u'black', u'red', u'blue']","[u'left', u'middle', u'right']","[0.9, 0.5, 0.1]","[u'medium', u'low', u'high']","blue",51,"right","high","True","False",376,1200,NA
"A36ZRUGMKQA5KO","Wed Sep 30 2020 10:11:07 GMT-0700 (Pacific Daylight Time)","Wed Sep 30 2020 10:20:49 GMT-0700 (Pacific Daylight Time)","Mozilla/5.0 (X11; CrOS x86_64 13310.91.0) AppleWebKit/537.36 (KHTML, like Gecko) Chrome/85.0.4183.131 Safari/537.36",22,"[0.9, 0.5, 0.1]","[0.8, 0.4, 0.2]","[u'black', u'red', u'blue']","[u'left', u'middle', u'right']","[0.9, 0.5, 0.1]","[u'medium', u'low', u'high']","blue",51,"right","high","True","False",355,1300,NA
"A36ZRUGMKQA5KO","Wed Sep 30 2020 10:11:07 GMT-0700 (Pacific Daylight Time)","Wed Sep 30 2020 10:20:49 GMT-0700 (Pacific Daylight Time)","Mozilla/5.0 (X11; CrOS x86_64 13310.91.0) AppleWebKit/537.36 (KHTML, like Gecko) Chrome/85.0.4183.131 Safari/537.36",23,"[0.9, 0.5, 0.1]","[0.8, 0.4, 0.2]","[u'black', u'red', u'blue']","[u'left', u'middle', u'right']","[0.9, 0.5, 0.1]","[u'medium', u'low', u'high']","blue",51,"right","high","True","True",318,1400,NA
"A36ZRUGMKQA5KO","Wed Sep 30 2020 10:11:07 GMT-0700 (Pacific Daylight Time)","Wed Sep 30 2020 10:20:49 GMT-0700 (Pacific Daylight Time)","Mozilla/5.0 (X11; CrOS x86_64 13310.91.0) AppleWebKit/537.36 (KHTML, like Gecko) Chrome/85.0.4183.131 Safari/537.36",24,"[0.9, 0.5, 0.1]","[0.8, 0.4, 0.2]","[u'black', u'red', u'blue']","[u'left', u'middle', u'right']","[0.9, 0.5, 0.1]","[u'high', u'low', u'medium']","blue",51,"right","medium","False","False",316,1350,NA
"A36ZRUGMKQA5KO","Wed Sep 30 2020 10:11:07 GMT-0700 (Pacific Daylight Time)","Wed Sep 30 2020 10:20:49 GMT-0700 (Pacific Daylight Time)","Mozilla/5.0 (X11; CrOS x86_64 13310.91.0) AppleWebKit/537.36 (KHTML, like Gecko) Chrome/85.0.4183.131 Safari/537.36",25,"[0.9, 0.5, 0.1]","[0.8, 0.4, 0.2]","[u'black', u'red', u'blue']","[u'left', u'middle', u'right']","[0.9, 0.5, 0.1]","[u'high', u'low', u'medium']","black",49,"left","high","True","False",516,1450,NA
"A36ZRUGMKQA5KO","Wed Sep 30 2020 10:11:07 GMT-0700 (Pacific Daylight Time)","Wed Sep 30 2020 10:20:49 GMT-0700 (Pacific Daylight Time)","Mozilla/5.0 (X11; CrOS x86_64 13310.91.0) AppleWebKit/537.36 (KHTML, like Gecko) Chrome/85.0.4183.131 Safari/537.36",26,"[0.9, 0.5, 0.1]","[0.8, 0.4, 0.2]","[u'black', u'red', u'blue']","[u'left', u'middle', u'right']","[0.9, 0.5, 0.1]","[u'high', u'low', u'medium']","blue",51,"right","medium","True","False",1049,1550,NA
"A36ZRUGMKQA5KO","Wed Sep 30 2020 10:11:07 GMT-0700 (Pacific Daylight Time)","Wed Sep 30 2020 10:20:49 GMT-0700 (Pacific Daylight Time)","Mozilla/5.0 (X11; CrOS x86_64 13310.91.0) AppleWebKit/537.36 (KHTML, like Gecko) Chrome/85.0.4183.131 Safari/537.36",27,"[0.9, 0.5, 0.1]","[0.8, 0.4, 0.2]","[u'black', u'red', u'blue']","[u'left', u'middle', u'right']","[0.9, 0.5, 0.1]","[u'high', u'low', u'medium']","blue",51,"right","medium","True","False",318,1650,NA
"A36ZRUGMKQA5KO","Wed Sep 30 2020 10:11:07 GMT-0700 (Pacific Daylight Time)","Wed Sep 30 2020 10:20:49 GMT-0700 (Pacific Daylight Time)","Mozilla/5.0 (X11; CrOS x86_64 13310.91.0) AppleWebKit/537.36 (KHTML, like Gecko) Chrome/85.0.4183.131 Safari/537.36",28,"[0.9, 0.5, 0.1]","[0.8, 0.4, 0.2]","[u'black', u'red', u'blue']","[u'left', u'middle', u'right']","[0.9, 0.5, 0.1]","[u'high', u'low', u'medium']","blue",51,"right","medium","True","False",256,1750,NA
"A36ZRUGMKQA5KO","Wed Sep 30 2020 10:11:07 GMT-0700 (Pacific Daylight Time)","Wed Sep 30 2020 10:20:49 GMT-0700 (Pacific Daylight Time)","Mozilla/5.0 (X11; CrOS x86_64 13310.91.0) AppleWebKit/537.36 (KHTML, like Gecko) Chrome/85.0.4183.131 Safari/537.36",29,"[0.9, 0.5, 0.1]","[0.8, 0.4, 0.2]","[u'black', u'red', u'blue']","[u'left', u'middle', u'right']","[0.9, 0.5, 0.1]","[u'high', u'low', u'medium']","blue",51,"right","medium","False","False",296,1700,NA
"A36ZRUGMKQA5KO","Wed Sep 30 2020 10:11:07 GMT-0700 (Pacific Daylight Time)","Wed Sep 30 2020 10:20:49 GMT-0700 (Pacific Daylight Time)","Mozilla/5.0 (X11; CrOS x86_64 13310.91.0) AppleWebKit/537.36 (KHTML, like Gecko) Chrome/85.0.4183.131 Safari/537.36",30,"[0.9, 0.5, 0.1]","[0.8, 0.4, 0.2]","[u'black', u'red', u'blue']","[u'left', u'middle', u'right']","[0.9, 0.5, 0.1]","[u'high', u'low', u'medium']","black",49,"left","high","True","False",335,1800,NA
"A36ZRUGMKQA5KO","Wed Sep 30 2020 10:11:07 GMT-0700 (Pacific Daylight Time)","Wed Sep 30 2020 10:20:49 GMT-0700 (Pacific Daylight Time)","Mozilla/5.0 (X11; CrOS x86_64 13310.91.0) AppleWebKit/537.36 (KHTML, like Gecko) Chrome/85.0.4183.131 Safari/537.36",31,"[0.9, 0.5, 0.1]","[0.8, 0.4, 0.2]","[u'black', u'red', u'blue']","[u'left', u'middle', u'right']","[0.9, 0.5, 0.1]","[u'high', u'low', u'medium']","black",49,"left","high","True","False",361,1900,NA
"A36ZRUGMKQA5KO","Wed Sep 30 2020 10:11:07 GMT-0700 (Pacific Daylight Time)","Wed Sep 30 2020 10:20:49 GMT-0700 (Pacific Daylight Time)","Mozilla/5.0 (X11; CrOS x86_64 13310.91.0) AppleWebKit/537.36 (KHTML, like Gecko) Chrome/85.0.4183.131 Safari/537.36",32,"[0.9, 0.5, 0.1]","[0.8, 0.4, 0.2]","[u'black', u'red', u'blue']","[u'left', u'middle', u'right']","[0.9, 0.5, 0.1]","[u'high', u'low', u'medium']","black",49,"left","high","False","False",319,1850,NA
"A36ZRUGMKQA5KO","Wed Sep 30 2020 10:11:07 GMT-0700 (Pacific Daylight Time)","Wed Sep 30 2020 10:20:49 GMT-0700 (Pacific Daylight Time)","Mozilla/5.0 (X11; CrOS x86_64 13310.91.0) AppleWebKit/537.36 (KHTML, like Gecko) Chrome/85.0.4183.131 Safari/537.36",33,"[0.9, 0.5, 0.1]","[0.8, 0.4, 0.2]","[u'black', u'red', u'blue']","[u'left', u'middle', u'right']","[0.9, 0.5, 0.1]","[u'high', u'low', u'medium']","blue",51,"right","medium","True","False",386,1950,NA
"A36ZRUGMKQA5KO","Wed Sep 30 2020 10:11:07 GMT-0700 (Pacific Daylight Time)","Wed Sep 30 2020 10:20:49 GMT-0700 (Pacific Daylight Time)","Mozilla/5.0 (X11; CrOS x86_64 13310.91.0) AppleWebKit/537.36 (KHTML, like Gecko) Chrome/85.0.4183.131 Safari/537.36",34,"[0.9, 0.5, 0.1]","[0.8, 0.4, 0.2]","[u'black', u'red', u'blue']","[u'left', u'middle', u'right']","[0.9, 0.5, 0.1]","[u'high', u'low', u'medium']","blue",51,"right","medium","False","False",349,1900,NA
"A36ZRUGMKQA5KO","Wed Sep 30 2020 10:11:07 GMT-0700 (Pacific Daylight Time)","Wed Sep 30 2020 10:20:49 GMT-0700 (Pacific Daylight Time)","Mozilla/5.0 (X11; CrOS x86_64 13310.91.0) AppleWebKit/537.36 (KHTML, like Gecko) Chrome/85.0.4183.131 Safari/537.36",35,"[0.9, 0.5, 0.1]","[0.8, 0.4, 0.2]","[u'black', u'red', u'blue']","[u'left', u'middle', u'right']","[0.9, 0.5, 0.1]","[u'high', u'low', u'medium']","red",50,"middle","low","False","False",279,1850,NA
"A36ZRUGMKQA5KO","Wed Sep 30 2020 10:11:07 GMT-0700 (Pacific Daylight Time)","Wed Sep 30 2020 10:20:49 GMT-0700 (Pacific Daylight Time)","Mozilla/5.0 (X11; CrOS x86_64 13310.91.0) AppleWebKit/537.36 (KHTML, like Gecko) Chrome/85.0.4183.131 Safari/537.36",36,"[0.9, 0.5, 0.1]","[0.8, 0.4, 0.2]","[u'black', u'red', u'blue']","[u'left', u'middle', u'right']","[0.9, 0.5, 0.1]","[u'high', u'low', u'medium']","black",49,"left","high","True","False",250,1950,NA
"A36ZRUGMKQA5KO","Wed Sep 30 2020 10:11:07 GMT-0700 (Pacific Daylight Time)","Wed Sep 30 2020 10:20:49 GMT-0700 (Pacific Daylight Time)","Mozilla/5.0 (X11; CrOS x86_64 13310.91.0) AppleWebKit/537.36 (KHTML, like Gecko) Chrome/85.0.4183.131 Safari/537.36",37,"[0.9, 0.5, 0.1]","[0.8, 0.4, 0.2]","[u'black', u'red', u'blue']","[u'left', u'middle', u'right']","[0.9, 0.5, 0.1]","[u'high', u'low', u'medium']","black",49,"left","high","True","False",376,2050,NA
"A36ZRUGMKQA5KO","Wed Sep 30 2020 10:11:07 GMT-0700 (Pacific Daylight Time)","Wed Sep 30 2020 10:20:49 GMT-0700 (Pacific Daylight Time)","Mozilla/5.0 (X11; CrOS x86_64 13310.91.0) AppleWebKit/537.36 (KHTML, like Gecko) Chrome/85.0.4183.131 Safari/537.36",38,"[0.9, 0.5, 0.1]","[0.8, 0.4, 0.2]","[u'black', u'red', u'blue']","[u'left', u'middle', u'right']","[0.9, 0.5, 0.1]","[u'high', u'low', u'medium']","blue",51,"right","medium","False","False",2110,2000,NA
"A36ZRUGMKQA5KO","Wed Sep 30 2020 10:11:07 GMT-0700 (Pacific Daylight Time)","Wed Sep 30 2020 10:20:49 GMT-0700 (Pacific Daylight Time)","Mozilla/5.0 (X11; CrOS x86_64 13310.91.0) AppleWebKit/537.36 (KHTML, like Gecko) Chrome/85.0.4183.131 Safari/537.36",39,"[0.9, 0.5, 0.1]","[0.8, 0.4, 0.2]","[u'black', u'red', u'blue']","[u'left', u'middle', u'right']","[0.9, 0.5, 0.1]","[u'high', u'low', u'medium']","black",49,"left","high","True","False",253,2100,NA
"A36ZRUGMKQA5KO","Wed Sep 30 2020 10:11:07 GMT-0700 (Pacific Daylight Time)","Wed Sep 30 2020 10:20:49 GMT-0700 (Pacific Daylight Time)","Mozilla/5.0 (X11; CrOS x86_64 13310.91.0) AppleWebKit/537.36 (KHTML, like Gecko) Chrome/85.0.4183.131 Safari/537.36",40,"[0.9, 0.5, 0.1]","[0.8, 0.4, 0.2]","[u'black', u'red', u'blue']","[u'left', u'middle', u'right']","[0.9, 0.5, 0.1]","[u'high', u'low', u'medium']","black",49,"left","high","True","False",339,2200,NA
"A36ZRUGMKQA5KO","Wed Sep 30 2020 10:11:07 GMT-0700 (Pacific Daylight Time)","Wed Sep 30 2020 10:20:49 GMT-0700 (Pacific Daylight Time)","Mozilla/5.0 (X11; CrOS x86_64 13310.91.0) AppleWebKit/537.36 (KHTML, like Gecko) Chrome/85.0.4183.131 Safari/537.36",41,"[0.9, 0.5, 0.1]","[0.8, 0.4, 0.2]","[u'black', u'red', u'blue']","[u'left', u'middle', u'right']","[0.9, 0.5, 0.1]","[u'medium', u'low', u'high']","blue",51,"right","high","True","False",1594,2300,NA
"A36ZRUGMKQA5KO","Wed Sep 30 2020 10:11:07 GMT-0700 (Pacific Daylight Time)","Wed Sep 30 2020 10:20:49 GMT-0700 (Pacific Daylight Time)","Mozilla/5.0 (X11; CrOS x86_64 13310.91.0) AppleWebKit/537.36 (KHTML, like Gecko) Chrome/85.0.4183.131 Safari/537.36",42,"[0.9, 0.5, 0.1]","[0.8, 0.4, 0.2]","[u'black', u'red', u'blue']","[u'left', u'middle', u'right']","[0.9, 0.5, 0.1]","[u'medium', u'low', u'high']","blue",51,"right","high","True","False",278,2400,NA
"A36ZRUGMKQA5KO","Wed Sep 30 2020 10:11:07 GMT-0700 (Pacific Daylight Time)","Wed Sep 30 2020 10:20:49 GMT-0700 (Pacific Daylight Time)","Mozilla/5.0 (X11; CrOS x86_64 13310.91.0) AppleWebKit/537.36 (KHTML, like Gecko) Chrome/85.0.4183.131 Safari/537.36",43,"[0.9, 0.5, 0.1]","[0.8, 0.4, 0.2]","[u'black', u'red', u'blue']","[u'left', u'middle', u'right']","[0.9, 0.5, 0.1]","[u'medium', u'low', u'high']","blue",51,"right","high","True","False",281,2500,NA
"A36ZRUGMKQA5KO","Wed Sep 30 2020 10:11:07 GMT-0700 (Pacific Daylight Time)","Wed Sep 30 2020 10:20:49 GMT-0700 (Pacific Daylight Time)","Mozilla/5.0 (X11; CrOS x86_64 13310.91.0) AppleWebKit/537.36 (KHTML, like Gecko) Chrome/85.0.4183.131 Safari/537.36",44,"[0.9, 0.5, 0.1]","[0.8, 0.4, 0.2]","[u'black', u'red', u'blue']","[u'left', u'middle', u'right']","[0.9, 0.5, 0.1]","[u'medium', u'low', u'high']","blue",51,"right","high","True","False",237,2600,NA
"A36ZRUGMKQA5KO","Wed Sep 30 2020 10:11:07 GMT-0700 (Pacific Daylight Time)","Wed Sep 30 2020 10:20:49 GMT-0700 (Pacific Daylight Time)","Mozilla/5.0 (X11; CrOS x86_64 13310.91.0) AppleWebKit/537.36 (KHTML, like Gecko) Chrome/85.0.4183.131 Safari/537.36",45,"[0.9, 0.5, 0.1]","[0.8, 0.4, 0.2]","[u'black', u'red', u'blue']","[u'left', u'middle', u'right']","[0.9, 0.5, 0.1]","[u'medium', u'low', u'high']","blue",51,"right","high","True","False",238,2700,NA
"A36ZRUGMKQA5KO","Wed Sep 30 2020 10:11:07 GMT-0700 (Pacific Daylight Time)","Wed Sep 30 2020 10:20:49 GMT-0700 (Pacific Daylight Time)","Mozilla/5.0 (X11; CrOS x86_64 13310.91.0) AppleWebKit/537.36 (KHTML, like Gecko) Chrome/85.0.4183.131 Safari/537.36",46,"[0.9, 0.5, 0.1]","[0.8, 0.4, 0.2]","[u'black', u'red', u'blue']","[u'left', u'middle', u'right']","[0.9, 0.5, 0.1]","[u'medium', u'low', u'high']","blue",51,"right","high","True","False",242,2800,NA
"A36ZRUGMKQA5KO","Wed Sep 30 2020 10:11:07 GMT-0700 (Pacific Daylight Time)","Wed Sep 30 2020 10:20:49 GMT-0700 (Pacific Daylight Time)","Mozilla/5.0 (X11; CrOS x86_64 13310.91.0) AppleWebKit/537.36 (KHTML, like Gecko) Chrome/85.0.4183.131 Safari/537.36",47,"[0.9, 0.5, 0.1]","[0.8, 0.4, 0.2]","[u'black', u'red', u'blue']","[u'left', u'middle', u'right']","[0.9, 0.5, 0.1]","[u'medium', u'low', u'high']","blue",51,"right","high","True","False",388,2900,NA
"A36ZRUGMKQA5KO","Wed Sep 30 2020 10:11:07 GMT-0700 (Pacific Daylight Time)","Wed Sep 30 2020 10:20:49 GMT-0700 (Pacific Daylight Time)","Mozilla/5.0 (X11; CrOS x86_64 13310.91.0) AppleWebKit/537.36 (KHTML, like Gecko) Chrome/85.0.4183.131 Safari/537.36",48,"[0.9, 0.5, 0.1]","[0.8, 0.4, 0.2]","[u'black', u'red', u'blue']","[u'left', u'middle', u'right']","[0.9, 0.5, 0.1]","[u'medium', u'low', u'high']","blue",51,"right","high","False","False",343,2850,NA
"A36ZRUGMKQA5KO","Wed Sep 30 2020 10:11:07 GMT-0700 (Pacific Daylight Time)","Wed Sep 30 2020 10:20:49 GMT-0700 (Pacific Daylight Time)","Mozilla/5.0 (X11; CrOS x86_64 13310.91.0) AppleWebKit/537.36 (KHTML, like Gecko) Chrome/85.0.4183.131 Safari/537.36",49,"[0.9, 0.5, 0.1]","[0.8, 0.4, 0.2]","[u'black', u'red', u'blue']","[u'left', u'middle', u'right']","[0.9, 0.5, 0.1]","[u'medium', u'low', u'high']","black",49,"left","medium","True","False",297,2950,NA
"A36ZRUGMKQA5KO","Wed Sep 30 2020 10:11:07 GMT-0700 (Pacific Daylight Time)","Wed Sep 30 2020 10:20:49 GMT-0700 (Pacific Daylight Time)","Mozilla/5.0 (X11; CrOS x86_64 13310.91.0) AppleWebKit/537.36 (KHTML, like Gecko) Chrome/85.0.4183.131 Safari/537.36",50,"[0.9, 0.5, 0.1]","[0.8, 0.4, 0.2]","[u'black', u'red', u'blue']","[u'left', u'middle', u'right']","[0.9, 0.5, 0.1]","[u'medium', u'low', u'high']","black",49,"left","medium","False","False",316,2900,NA
"A36ZRUGMKQA5KO","Wed Sep 30 2020 10:11:07 GMT-0700 (Pacific Daylight Time)","Wed Sep 30 2020 10:20:49 GMT-0700 (Pacific Daylight Time)","Mozilla/5.0 (X11; CrOS x86_64 13310.91.0) AppleWebKit/537.36 (KHTML, like Gecko) Chrome/85.0.4183.131 Safari/537.36",51,"[0.9, 0.5, 0.1]","[0.8, 0.4, 0.2]","[u'black', u'red', u'blue']","[u'left', u'middle', u'right']","[0.9, 0.5, 0.1]","[u'medium', u'low', u'high']","blue",51,"right","high","True","False",275,3000,NA
"A36ZRUGMKQA5KO","Wed Sep 30 2020 10:11:07 GMT-0700 (Pacific Daylight Time)","Wed Sep 30 2020 10:20:49 GMT-0700 (Pacific Daylight Time)","Mozilla/5.0 (X11; CrOS x86_64 13310.91.0) AppleWebKit/537.36 (KHTML, like Gecko) Chrome/85.0.4183.131 Safari/537.36",52,"[0.9, 0.5, 0.1]","[0.8, 0.4, 0.2]","[u'black', u'red', u'blue']","[u'left', u'middle', u'right']","[0.9, 0.5, 0.1]","[u'medium', u'low', u'high']","blue",51,"right","high","True","False",310,3100,NA
"A36ZRUGMKQA5KO","Wed Sep 30 2020 10:11:07 GMT-0700 (Pacific Daylight Time)","Wed Sep 30 2020 10:20:49 GMT-0700 (Pacific Daylight Time)","Mozilla/5.0 (X11; CrOS x86_64 13310.91.0) AppleWebKit/537.36 (KHTML, like Gecko) Chrome/85.0.4183.131 Safari/537.36",53,"[0.9, 0.5, 0.1]","[0.8, 0.4, 0.2]","[u'black', u'red', u'blue']","[u'left', u'middle', u'right']","[0.9, 0.5, 0.1]","[u'medium', u'low', u'high']","blue",51,"right","high","True","False",421,3200,NA
"A36ZRUGMKQA5KO","Wed Sep 30 2020 10:11:07 GMT-0700 (Pacific Daylight Time)","Wed Sep 30 2020 10:20:49 GMT-0700 (Pacific Daylight Time)","Mozilla/5.0 (X11; CrOS x86_64 13310.91.0) AppleWebKit/537.36 (KHTML, like Gecko) Chrome/85.0.4183.131 Safari/537.36",54,"[0.9, 0.5, 0.1]","[0.8, 0.4, 0.2]","[u'black', u'red', u'blue']","[u'left', u'middle', u'right']","[0.9, 0.5, 0.1]","[u'medium', u'low', u'high']","blue",51,"right","high","True","False",404,3300,NA
"A36ZRUGMKQA5KO","Wed Sep 30 2020 10:11:07 GMT-0700 (Pacific Daylight Time)","Wed Sep 30 2020 10:20:49 GMT-0700 (Pacific Daylight Time)","Mozilla/5.0 (X11; CrOS x86_64 13310.91.0) AppleWebKit/537.36 (KHTML, like Gecko) Chrome/85.0.4183.131 Safari/537.36",55,"[0.9, 0.5, 0.1]","[0.8, 0.4, 0.2]","[u'black', u'red', u'blue']","[u'left', u'middle', u'right']","[0.9, 0.5, 0.1]","[u'medium', u'low', u'high']","blue",51,"right","high","False","False",321,3250,NA
"A36ZRUGMKQA5KO","Wed Sep 30 2020 10:11:07 GMT-0700 (Pacific Daylight Time)","Wed Sep 30 2020 10:20:49 GMT-0700 (Pacific Daylight Time)","Mozilla/5.0 (X11; CrOS x86_64 13310.91.0) AppleWebKit/537.36 (KHTML, like Gecko) Chrome/85.0.4183.131 Safari/537.36",56,"[0.9, 0.5, 0.1]","[0.8, 0.4, 0.2]","[u'black', u'red', u'blue']","[u'left', u'middle', u'right']","[0.9, 0.5, 0.1]","[u'medium', u'low', u'high']","black",49,"left","medium","False","False",149,3200,NA
"A36ZRUGMKQA5KO","Wed Sep 30 2020 10:11:07 GMT-0700 (Pacific Daylight Time)","Wed Sep 30 2020 10:20:49 GMT-0700 (Pacific Daylight Time)","Mozilla/5.0 (X11; CrOS x86_64 13310.91.0) AppleWebKit/537.36 (KHTML, like Gecko) Chrome/85.0.4183.131 Safari/537.36",57,"[0.9, 0.5, 0.1]","[0.8, 0.4, 0.2]","[u'black', u'red', u'blue']","[u'left', u'middle', u'right']","[0.9, 0.5, 0.1]","[u'medium', u'low', u'high']","red",50,"middle","low","False","False",240,3150,NA
"A36ZRUGMKQA5KO","Wed Sep 30 2020 10:11:07 GMT-0700 (Pacific Daylight Time)","Wed Sep 30 2020 10:20:49 GMT-0700 (Pacific Daylight Time)","Mozilla/5.0 (X11; CrOS x86_64 13310.91.0) AppleWebKit/537.36 (KHTML, like Gecko) Chrome/85.0.4183.131 Safari/537.36",58,"[0.9, 0.5, 0.1]","[0.8, 0.4, 0.2]","[u'black', u'red', u'blue']","[u'left', u'middle', u'right']","[0.9, 0.5, 0.1]","[u'medium', u'low', u'high']","blue",51,"right","high","True","False",125,3250,NA
"A36ZRUGMKQA5KO","Wed Sep 30 2020 10:11:07 GMT-0700 (Pacific Daylight Time)","Wed Sep 30 2020 10:20:49 GMT-0700 (Pacific Daylight Time)","Mozilla/5.0 (X11; CrOS x86_64 13310.91.0) AppleWebKit/537.36 (KHTML, like Gecko) Chrome/85.0.4183.131 Safari/537.36",59,"[0.9, 0.5, 0.1]","[0.8, 0.4, 0.2]","[u'black', u'red', u'blue']","[u'left', u'middle', u'right']","[0.9, 0.5, 0.1]","[u'medium', u'low', u'high']","blue",51,"right","high","True","False",196,3350,NA
"A36ZRUGMKQA5KO","Wed Sep 30 2020 10:11:07 GMT-0700 (Pacific Daylight Time)","Wed Sep 30 2020 10:20:49 GMT-0700 (Pacific Daylight Time)","Mozilla/5.0 (X11; CrOS x86_64 13310.91.0) AppleWebKit/537.36 (KHTML, like Gecko) Chrome/85.0.4183.131 Safari/537.36",60,"[0.9, 0.5, 0.1]","[0.8, 0.4, 0.2]","[u'black', u'red', u'blue']","[u'left', u'middle', u'right']","[0.9, 0.5, 0.1]","[u'medium', u'low', u'high']","blue",51,"right","high","True","False",124,3450,NA
"A36ZRUGMKQA5KO","Wed Sep 30 2020 10:11:07 GMT-0700 (Pacific Daylight Time)","Wed Sep 30 2020 10:20:49 GMT-0700 (Pacific Daylight Time)","Mozilla/5.0 (X11; CrOS x86_64 13310.91.0) AppleWebKit/537.36 (KHTML, like Gecko) Chrome/85.0.4183.131 Safari/537.36",61,"[0.9, 0.5, 0.1]","[0.8, 0.4, 0.2]","[u'black', u'red', u'blue']","[u'left', u'middle', u'right']","[0.9, 0.5, 0.1]","[u'medium', u'low', u'high']","blue",51,"right","high","True","False",237,3550,NA
"A36ZRUGMKQA5KO","Wed Sep 30 2020 10:11:07 GMT-0700 (Pacific Daylight Time)","Wed Sep 30 2020 10:20:49 GMT-0700 (Pacific Daylight Time)","Mozilla/5.0 (X11; CrOS x86_64 13310.91.0) AppleWebKit/537.36 (KHTML, like Gecko) Chrome/85.0.4183.131 Safari/537.36",62,"[0.9, 0.5, 0.1]","[0.8, 0.4, 0.2]","[u'black', u'red', u'blue']","[u'left', u'middle', u'right']","[0.9, 0.5, 0.1]","[u'medium', u'low', u'high']","blue",51,"right","high","True","False",90,3650,NA
"A36ZRUGMKQA5KO","Wed Sep 30 2020 10:11:07 GMT-0700 (Pacific Daylight Time)","Wed Sep 30 2020 10:20:49 GMT-0700 (Pacific Daylight Time)","Mozilla/5.0 (X11; CrOS x86_64 13310.91.0) AppleWebKit/537.36 (KHTML, like Gecko) Chrome/85.0.4183.131 Safari/537.36",63,"[0.9, 0.5, 0.1]","[0.8, 0.4, 0.2]","[u'black', u'red', u'blue']","[u'left', u'middle', u'right']","[0.9, 0.5, 0.1]","[u'medium', u'low', u'high']","blue",51,"right","high","True","False",218,3750,NA
"A36ZRUGMKQA5KO","Wed Sep 30 2020 10:11:07 GMT-0700 (Pacific Daylight Time)","Wed Sep 30 2020 10:20:49 GMT-0700 (Pacific Daylight Time)","Mozilla/5.0 (X11; CrOS x86_64 13310.91.0) AppleWebKit/537.36 (KHTML, like Gecko) Chrome/85.0.4183.131 Safari/537.36",64,"[0.9, 0.5, 0.1]","[0.8, 0.4, 0.2]","[u'black', u'red', u'blue']","[u'left', u'middle', u'right']","[0.9, 0.5, 0.1]","[u'medium', u'low', u'high']","blue",51,"right","high","True","False",244,3850,NA
"A36ZRUGMKQA5KO","Wed Sep 30 2020 10:11:07 GMT-0700 (Pacific Daylight Time)","Wed Sep 30 2020 10:20:49 GMT-0700 (Pacific Daylight Time)","Mozilla/5.0 (X11; CrOS x86_64 13310.91.0) AppleWebKit/537.36 (KHTML, like Gecko) Chrome/85.0.4183.131 Safari/537.36",65,"[0.9, 0.5, 0.1]","[0.8, 0.4, 0.2]","[u'black', u'red', u'blue']","[u'left', u'middle', u'right']","[0.9, 0.5, 0.1]","[u'medium', u'low', u'high']","blue",51,"right","high","True","False",294,3950,NA
"A36ZRUGMKQA5KO","Wed Sep 30 2020 10:11:07 GMT-0700 (Pacific Daylight Time)","Wed Sep 30 2020 10:20:49 GMT-0700 (Pacific Daylight Time)","Mozilla/5.0 (X11; CrOS x86_64 13310.91.0) AppleWebKit/537.36 (KHTML, like Gecko) Chrome/85.0.4183.131 Safari/537.36",66,"[0.9, 0.5, 0.1]","[0.8, 0.4, 0.2]","[u'black', u'red', u'blue']","[u'left', u'middle', u'right']","[0.9, 0.5, 0.1]","[u'medium', u'low', u'high']","blue",51,"right","high","True","True",300,4050,NA
"A36ZRUGMKQA5KO","Wed Sep 30 2020 10:11:07 GMT-0700 (Pacific Daylight Time)","Wed Sep 30 2020 10:20:49 GMT-0700 (Pacific Daylight Time)","Mozilla/5.0 (X11; CrOS x86_64 13310.91.0) AppleWebKit/537.36 (KHTML, like Gecko) Chrome/85.0.4183.131 Safari/537.36",67,"[0.9, 0.5, 0.1]","[0.8, 0.4, 0.2]","[u'black', u'red', u'blue']","[u'left', u'middle', u'right']","[0.9, 0.5, 0.1]","[u'low', u'high', u'medium']","blue",51,"right","medium","True","False",261,4150,NA
"A36ZRUGMKQA5KO","Wed Sep 30 2020 10:11:07 GMT-0700 (Pacific Daylight Time)","Wed Sep 30 2020 10:20:49 GMT-0700 (Pacific Daylight Time)","Mozilla/5.0 (X11; CrOS x86_64 13310.91.0) AppleWebKit/537.36 (KHTML, like Gecko) Chrome/85.0.4183.131 Safari/537.36",68,"[0.9, 0.5, 0.1]","[0.8, 0.4, 0.2]","[u'black', u'red', u'blue']","[u'left', u'middle', u'right']","[0.9, 0.5, 0.1]","[u'low', u'high', u'medium']","blue",51,"right","medium","True","False",316,4250,NA
"A36ZRUGMKQA5KO","Wed Sep 30 2020 10:11:07 GMT-0700 (Pacific Daylight Time)","Wed Sep 30 2020 10:20:49 GMT-0700 (Pacific Daylight Time)","Mozilla/5.0 (X11; CrOS x86_64 13310.91.0) AppleWebKit/537.36 (KHTML, like Gecko) Chrome/85.0.4183.131 Safari/537.36",69,"[0.9, 0.5, 0.1]","[0.8, 0.4, 0.2]","[u'black', u'red', u'blue']","[u'left', u'middle', u'right']","[0.9, 0.5, 0.1]","[u'low', u'high', u'medium']","blue",51,"right","medium","True","False",270,4350,NA
"A36ZRUGMKQA5KO","Wed Sep 30 2020 10:11:07 GMT-0700 (Pacific Daylight Time)","Wed Sep 30 2020 10:20:49 GMT-0700 (Pacific Daylight Time)","Mozilla/5.0 (X11; CrOS x86_64 13310.91.0) AppleWebKit/537.36 (KHTML, like Gecko) Chrome/85.0.4183.131 Safari/537.36",70,"[0.9, 0.5, 0.1]","[0.8, 0.4, 0.2]","[u'black', u'red', u'blue']","[u'left', u'middle', u'right']","[0.9, 0.5, 0.1]","[u'low', u'high', u'medium']","blue",51,"right","medium","True","False",207,4450,NA
"A36ZRUGMKQA5KO","Wed Sep 30 2020 10:11:07 GMT-0700 (Pacific Daylight Time)","Wed Sep 30 2020 10:20:49 GMT-0700 (Pacific Daylight Time)","Mozilla/5.0 (X11; CrOS x86_64 13310.91.0) AppleWebKit/537.36 (KHTML, like Gecko) Chrome/85.0.4183.131 Safari/537.36",71,"[0.9, 0.5, 0.1]","[0.8, 0.4, 0.2]","[u'black', u'red', u'blue']","[u'left', u'middle', u'right']","[0.9, 0.5, 0.1]","[u'low', u'high', u'medium']","blue",51,"right","medium","False","False",234,4400,NA
"A36ZRUGMKQA5KO","Wed Sep 30 2020 10:11:07 GMT-0700 (Pacific Daylight Time)","Wed Sep 30 2020 10:20:49 GMT-0700 (Pacific Daylight Time)","Mozilla/5.0 (X11; CrOS x86_64 13310.91.0) AppleWebKit/537.36 (KHTML, like Gecko) Chrome/85.0.4183.131 Safari/537.36",72,"[0.9, 0.5, 0.1]","[0.8, 0.4, 0.2]","[u'black', u'red', u'blue']","[u'left', u'middle', u'right']","[0.9, 0.5, 0.1]","[u'low', u'high', u'medium']","black",49,"left","low","False","False",1309,4350,NA
"A36ZRUGMKQA5KO","Wed Sep 30 2020 10:11:07 GMT-0700 (Pacific Daylight Time)","Wed Sep 30 2020 10:20:49 GMT-0700 (Pacific Daylight Time)","Mozilla/5.0 (X11; CrOS x86_64 13310.91.0) AppleWebKit/537.36 (KHTML, like Gecko) Chrome/85.0.4183.131 Safari/537.36",73,"[0.9, 0.5, 0.1]","[0.8, 0.4, 0.2]","[u'black', u'red', u'blue']","[u'left', u'middle', u'right']","[0.9, 0.5, 0.1]","[u'low', u'high', u'medium']","blue",51,"right","medium","True","False",184,4450,NA
"A36ZRUGMKQA5KO","Wed Sep 30 2020 10:11:07 GMT-0700 (Pacific Daylight Time)","Wed Sep 30 2020 10:20:49 GMT-0700 (Pacific Daylight Time)","Mozilla/5.0 (X11; CrOS x86_64 13310.91.0) AppleWebKit/537.36 (KHTML, like Gecko) Chrome/85.0.4183.131 Safari/537.36",74,"[0.9, 0.5, 0.1]","[0.8, 0.4, 0.2]","[u'black', u'red', u'blue']","[u'left', u'middle', u'right']","[0.9, 0.5, 0.1]","[u'low', u'high', u'medium']","blue",51,"right","medium","False","False",278,4400,NA
"A36ZRUGMKQA5KO","Wed Sep 30 2020 10:11:07 GMT-0700 (Pacific Daylight Time)","Wed Sep 30 2020 10:20:49 GMT-0700 (Pacific Daylight Time)","Mozilla/5.0 (X11; CrOS x86_64 13310.91.0) AppleWebKit/537.36 (KHTML, like Gecko) Chrome/85.0.4183.131 Safari/537.36",75,"[0.9, 0.5, 0.1]","[0.8, 0.4, 0.2]","[u'black', u'red', u'blue']","[u'left', u'middle', u'right']","[0.9, 0.5, 0.1]","[u'low', u'high', u'medium']","red",50,"middle","high","True","False",199,4500,NA
"A36ZRUGMKQA5KO","Wed Sep 30 2020 10:11:07 GMT-0700 (Pacific Daylight Time)","Wed Sep 30 2020 10:20:49 GMT-0700 (Pacific Daylight Time)","Mozilla/5.0 (X11; CrOS x86_64 13310.91.0) AppleWebKit/537.36 (KHTML, like Gecko) Chrome/85.0.4183.131 Safari/537.36",76,"[0.9, 0.5, 0.1]","[0.8, 0.4, 0.2]","[u'black', u'red', u'blue']","[u'left', u'middle', u'right']","[0.9, 0.5, 0.1]","[u'low', u'high', u'medium']","red",50,"middle","high","True","False",261,4600,NA
"A36ZRUGMKQA5KO","Wed Sep 30 2020 10:11:07 GMT-0700 (Pacific Daylight Time)","Wed Sep 30 2020 10:20:49 GMT-0700 (Pacific Daylight Time)","Mozilla/5.0 (X11; CrOS x86_64 13310.91.0) AppleWebKit/537.36 (KHTML, like Gecko) Chrome/85.0.4183.131 Safari/537.36",77,"[0.9, 0.5, 0.1]","[0.8, 0.4, 0.2]","[u'black', u'red', u'blue']","[u'left', u'middle', u'right']","[0.9, 0.5, 0.1]","[u'low', u'high', u'medium']","red",50,"middle","high","True","False",298,4700,NA
"A36ZRUGMKQA5KO","Wed Sep 30 2020 10:11:07 GMT-0700 (Pacific Daylight Time)","Wed Sep 30 2020 10:20:49 GMT-0700 (Pacific Daylight Time)","Mozilla/5.0 (X11; CrOS x86_64 13310.91.0) AppleWebKit/537.36 (KHTML, like Gecko) Chrome/85.0.4183.131 Safari/537.36",78,"[0.9, 0.5, 0.1]","[0.8, 0.4, 0.2]","[u'black', u'red', u'blue']","[u'left', u'middle', u'right']","[0.9, 0.5, 0.1]","[u'low', u'high', u'medium']","red",50,"middle","high","True","False",548,4800,NA
"A36ZRUGMKQA5KO","Wed Sep 30 2020 10:11:07 GMT-0700 (Pacific Daylight Time)","Wed Sep 30 2020 10:20:49 GMT-0700 (Pacific Daylight Time)","Mozilla/5.0 (X11; CrOS x86_64 13310.91.0) AppleWebKit/537.36 (KHTML, like Gecko) Chrome/85.0.4183.131 Safari/537.36",79,"[0.9, 0.5, 0.1]","[0.8, 0.4, 0.2]","[u'black', u'red', u'blue']","[u'left', u'middle', u'right']","[0.9, 0.5, 0.1]","[u'low', u'high', u'medium']","red",50,"middle","high","True","False",262,4900,NA
"A36ZRUGMKQA5KO","Wed Sep 30 2020 10:11:07 GMT-0700 (Pacific Daylight Time)","Wed Sep 30 2020 10:20:49 GMT-0700 (Pacific Daylight Time)","Mozilla/5.0 (X11; CrOS x86_64 13310.91.0) AppleWebKit/537.36 (KHTML, like Gecko) Chrome/85.0.4183.131 Safari/537.36",80,"[0.9, 0.5, 0.1]","[0.8, 0.4, 0.2]","[u'black', u'red', u'blue']","[u'left', u'middle', u'right']","[0.9, 0.5, 0.1]","[u'low', u'high', u'medium']","red",50,"middle","high","True","False",343,5000,NA
"A36ZRUGMKQA5KO","Wed Sep 30 2020 10:11:07 GMT-0700 (Pacific Daylight Time)","Wed Sep 30 2020 10:20:49 GMT-0700 (Pacific Daylight Time)","Mozilla/5.0 (X11; CrOS x86_64 13310.91.0) AppleWebKit/537.36 (KHTML, like Gecko) Chrome/85.0.4183.131 Safari/537.36",81,"[0.9, 0.5, 0.1]","[0.8, 0.4, 0.2]","[u'black', u'red', u'blue']","[u'left', u'middle', u'right']","[0.8, 0.4, 0.2]","[u'high', u'low', u'medium']","blue",51,"right","medium","False","False",563,4950,NA
"A36ZRUGMKQA5KO","Wed Sep 30 2020 10:11:07 GMT-0700 (Pacific Daylight Time)","Wed Sep 30 2020 10:20:49 GMT-0700 (Pacific Daylight Time)","Mozilla/5.0 (X11; CrOS x86_64 13310.91.0) AppleWebKit/537.36 (KHTML, like Gecko) Chrome/85.0.4183.131 Safari/537.36",82,"[0.9, 0.5, 0.1]","[0.8, 0.4, 0.2]","[u'black', u'red', u'blue']","[u'left', u'middle', u'right']","[0.8, 0.4, 0.2]","[u'high', u'low', u'medium']","red",50,"middle","low","False","False",230,4900,NA
"A36ZRUGMKQA5KO","Wed Sep 30 2020 10:11:07 GMT-0700 (Pacific Daylight Time)","Wed Sep 30 2020 10:20:49 GMT-0700 (Pacific Daylight Time)","Mozilla/5.0 (X11; CrOS x86_64 13310.91.0) AppleWebKit/537.36 (KHTML, like Gecko) Chrome/85.0.4183.131 Safari/537.36",83,"[0.9, 0.5, 0.1]","[0.8, 0.4, 0.2]","[u'black', u'red', u'blue']","[u'left', u'middle', u'right']","[0.8, 0.4, 0.2]","[u'high', u'low', u'medium']","black",49,"left","high","True","False",128,5000,NA
"A36ZRUGMKQA5KO","Wed Sep 30 2020 10:11:07 GMT-0700 (Pacific Daylight Time)","Wed Sep 30 2020 10:20:49 GMT-0700 (Pacific Daylight Time)","Mozilla/5.0 (X11; CrOS x86_64 13310.91.0) AppleWebKit/537.36 (KHTML, like Gecko) Chrome/85.0.4183.131 Safari/537.36",84,"[0.9, 0.5, 0.1]","[0.8, 0.4, 0.2]","[u'black', u'red', u'blue']","[u'left', u'middle', u'right']","[0.8, 0.4, 0.2]","[u'high', u'low', u'medium']","black",49,"left","high","True","False",241,5100,NA
"A36ZRUGMKQA5KO","Wed Sep 30 2020 10:11:07 GMT-0700 (Pacific Daylight Time)","Wed Sep 30 2020 10:20:49 GMT-0700 (Pacific Daylight Time)","Mozilla/5.0 (X11; CrOS x86_64 13310.91.0) AppleWebKit/537.36 (KHTML, like Gecko) Chrome/85.0.4183.131 Safari/537.36",85,"[0.9, 0.5, 0.1]","[0.8, 0.4, 0.2]","[u'black', u'red', u'blue']","[u'left', u'middle', u'right']","[0.8, 0.4, 0.2]","[u'high', u'low', u'medium']","black",49,"left","high","True","False",298,5200,NA
"A36ZRUGMKQA5KO","Wed Sep 30 2020 10:11:07 GMT-0700 (Pacific Daylight Time)","Wed Sep 30 2020 10:20:49 GMT-0700 (Pacific Daylight Time)","Mozilla/5.0 (X11; CrOS x86_64 13310.91.0) AppleWebKit/537.36 (KHTML, like Gecko) Chrome/85.0.4183.131 Safari/537.36",86,"[0.9, 0.5, 0.1]","[0.8, 0.4, 0.2]","[u'black', u'red', u'blue']","[u'left', u'middle', u'right']","[0.8, 0.4, 0.2]","[u'high', u'low', u'medium']","black",49,"left","high","True","False",233,5300,NA
"A36ZRUGMKQA5KO","Wed Sep 30 2020 10:11:07 GMT-0700 (Pacific Daylight Time)","Wed Sep 30 2020 10:20:49 GMT-0700 (Pacific Daylight Time)","Mozilla/5.0 (X11; CrOS x86_64 13310.91.0) AppleWebKit/537.36 (KHTML, like Gecko) Chrome/85.0.4183.131 Safari/537.36",87,"[0.9, 0.5, 0.1]","[0.8, 0.4, 0.2]","[u'black', u'red', u'blue']","[u'left', u'middle', u'right']","[0.8, 0.4, 0.2]","[u'high', u'low', u'medium']","black",49,"left","high","False","False",292,5250,NA
"A36ZRUGMKQA5KO","Wed Sep 30 2020 10:11:07 GMT-0700 (Pacific Daylight Time)","Wed Sep 30 2020 10:20:49 GMT-0700 (Pacific Daylight Time)","Mozilla/5.0 (X11; CrOS x86_64 13310.91.0) AppleWebKit/537.36 (KHTML, like Gecko) Chrome/85.0.4183.131 Safari/537.36",88,"[0.9, 0.5, 0.1]","[0.8, 0.4, 0.2]","[u'black', u'red', u'blue']","[u'left', u'middle', u'right']","[0.8, 0.4, 0.2]","[u'high', u'low', u'medium']","red",50,"middle","low","False","False",315,5200,NA
"A36ZRUGMKQA5KO","Wed Sep 30 2020 10:11:07 GMT-0700 (Pacific Daylight Time)","Wed Sep 30 2020 10:20:49 GMT-0700 (Pacific Daylight Time)","Mozilla/5.0 (X11; CrOS x86_64 13310.91.0) AppleWebKit/537.36 (KHTML, like Gecko) Chrome/85.0.4183.131 Safari/537.36",89,"[0.9, 0.5, 0.1]","[0.8, 0.4, 0.2]","[u'black', u'red', u'blue']","[u'left', u'middle', u'right']","[0.8, 0.4, 0.2]","[u'high', u'low', u'medium']","blue",51,"right","medium","False","False",215,5150,NA
"A36ZRUGMKQA5KO","Wed Sep 30 2020 10:11:07 GMT-0700 (Pacific Daylight Time)","Wed Sep 30 2020 10:20:49 GMT-0700 (Pacific Daylight Time)","Mozilla/5.0 (X11; CrOS x86_64 13310.91.0) AppleWebKit/537.36 (KHTML, like Gecko) Chrome/85.0.4183.131 Safari/537.36",90,"[0.9, 0.5, 0.1]","[0.8, 0.4, 0.2]","[u'black', u'red', u'blue']","[u'left', u'middle', u'right']","[0.8, 0.4, 0.2]","[u'high', u'low', u'medium']","black",49,"left","high","True","False",548,5250,NA
"A36ZRUGMKQA5KO","Wed Sep 30 2020 10:11:07 GMT-0700 (Pacific Daylight Time)","Wed Sep 30 2020 10:20:49 GMT-0700 (Pacific Daylight Time)","Mozilla/5.0 (X11; CrOS x86_64 13310.91.0) AppleWebKit/537.36 (KHTML, like Gecko) Chrome/85.0.4183.131 Safari/537.36",91,"[0.9, 0.5, 0.1]","[0.8, 0.4, 0.2]","[u'black', u'red', u'blue']","[u'left', u'middle', u'right']","[0.8, 0.4, 0.2]","[u'high', u'low', u'medium']","black",49,"left","high","True","False",340,5350,NA
"A36ZRUGMKQA5KO","Wed Sep 30 2020 10:11:07 GMT-0700 (Pacific Daylight Time)","Wed Sep 30 2020 10:20:49 GMT-0700 (Pacific Daylight Time)","Mozilla/5.0 (X11; CrOS x86_64 13310.91.0) AppleWebKit/537.36 (KHTML, like Gecko) Chrome/85.0.4183.131 Safari/537.36",92,"[0.9, 0.5, 0.1]","[0.8, 0.4, 0.2]","[u'black', u'red', u'blue']","[u'left', u'middle', u'right']","[0.8, 0.4, 0.2]","[u'high', u'low', u'medium']","black",49,"left","high","True","False",206,5450,NA
"A36ZRUGMKQA5KO","Wed Sep 30 2020 10:11:07 GMT-0700 (Pacific Daylight Time)","Wed Sep 30 2020 10:20:49 GMT-0700 (Pacific Daylight Time)","Mozilla/5.0 (X11; CrOS x86_64 13310.91.0) AppleWebKit/537.36 (KHTML, like Gecko) Chrome/85.0.4183.131 Safari/537.36",93,"[0.9, 0.5, 0.1]","[0.8, 0.4, 0.2]","[u'black', u'red', u'blue']","[u'left', u'middle', u'right']","[0.8, 0.4, 0.2]","[u'high', u'low', u'medium']","black",49,"left","high","False","False",216,5400,NA
"A36ZRUGMKQA5KO","Wed Sep 30 2020 10:11:07 GMT-0700 (Pacific Daylight Time)","Wed Sep 30 2020 10:20:49 GMT-0700 (Pacific Daylight Time)","Mozilla/5.0 (X11; CrOS x86_64 13310.91.0) AppleWebKit/537.36 (KHTML, like Gecko) Chrome/85.0.4183.131 Safari/537.36",94,"[0.9, 0.5, 0.1]","[0.8, 0.4, 0.2]","[u'black', u'red', u'blue']","[u'left', u'middle', u'right']","[0.8, 0.4, 0.2]","[u'high', u'low', u'medium']","blue",51,"right","medium","True","False",934,5500,NA
"A36ZRUGMKQA5KO","Wed Sep 30 2020 10:11:07 GMT-0700 (Pacific Daylight Time)","Wed Sep 30 2020 10:20:49 GMT-0700 (Pacific Daylight Time)","Mozilla/5.0 (X11; CrOS x86_64 13310.91.0) AppleWebKit/537.36 (KHTML, like Gecko) Chrome/85.0.4183.131 Safari/537.36",95,"[0.9, 0.5, 0.1]","[0.8, 0.4, 0.2]","[u'black', u'red', u'blue']","[u'left', u'middle', u'right']","[0.8, 0.4, 0.2]","[u'high', u'low', u'medium']","blue",51,"right","medium","True","False",208,5600,NA
"A36ZRUGMKQA5KO","Wed Sep 30 2020 10:11:07 GMT-0700 (Pacific Daylight Time)","Wed Sep 30 2020 10:20:49 GMT-0700 (Pacific Daylight Time)","Mozilla/5.0 (X11; CrOS x86_64 13310.91.0) AppleWebKit/537.36 (KHTML, like Gecko) Chrome/85.0.4183.131 Safari/537.36",96,"[0.9, 0.5, 0.1]","[0.8, 0.4, 0.2]","[u'black', u'red', u'blue']","[u'left', u'middle', u'right']","[0.8, 0.4, 0.2]","[u'high', u'low', u'medium']","blue",51,"right","medium","True","False",186,5700,NA
"A36ZRUGMKQA5KO","Wed Sep 30 2020 10:11:07 GMT-0700 (Pacific Daylight Time)","Wed Sep 30 2020 10:20:49 GMT-0700 (Pacific Daylight Time)","Mozilla/5.0 (X11; CrOS x86_64 13310.91.0) AppleWebKit/537.36 (KHTML, like Gecko) Chrome/85.0.4183.131 Safari/537.36",97,"[0.9, 0.5, 0.1]","[0.8, 0.4, 0.2]","[u'black', u'red', u'blue']","[u'left', u'middle', u'right']","[0.8, 0.4, 0.2]","[u'high', u'low', u'medium']","blue",51,"right","medium","False","False",234,5650,NA
"A36ZRUGMKQA5KO","Wed Sep 30 2020 10:11:07 GMT-0700 (Pacific Daylight Time)","Wed Sep 30 2020 10:20:49 GMT-0700 (Pacific Daylight Time)","Mozilla/5.0 (X11; CrOS x86_64 13310.91.0) AppleWebKit/537.36 (KHTML, like Gecko) Chrome/85.0.4183.131 Safari/537.36",98,"[0.9, 0.5, 0.1]","[0.8, 0.4, 0.2]","[u'black', u'red', u'blue']","[u'left', u'middle', u'right']","[0.8, 0.4, 0.2]","[u'high', u'low', u'medium']","black",49,"left","high","True","False",798,5750,NA
"A36ZRUGMKQA5KO","Wed Sep 30 2020 10:11:07 GMT-0700 (Pacific Daylight Time)","Wed Sep 30 2020 10:20:49 GMT-0700 (Pacific Daylight Time)","Mozilla/5.0 (X11; CrOS x86_64 13310.91.0) AppleWebKit/537.36 (KHTML, like Gecko) Chrome/85.0.4183.131 Safari/537.36",99,"[0.9, 0.5, 0.1]","[0.8, 0.4, 0.2]","[u'black', u'red', u'blue']","[u'left', u'middle', u'right']","[0.8, 0.4, 0.2]","[u'high', u'low', u'medium']","black",49,"left","high","False","False",276,5700,NA
"A36ZRUGMKQA5KO","Wed Sep 30 2020 10:11:07 GMT-0700 (Pacific Daylight Time)","Wed Sep 30 2020 10:20:49 GMT-0700 (Pacific Daylight Time)","Mozilla/5.0 (X11; CrOS x86_64 13310.91.0) AppleWebKit/537.36 (KHTML, like Gecko) Chrome/85.0.4183.131 Safari/537.36",100,"[0.9, 0.5, 0.1]","[0.8, 0.4, 0.2]","[u'black', u'red', u'blue']","[u'left', u'middle', u'right']","[0.8, 0.4, 0.2]","[u'high', u'low', u'medium']","red",50,"middle","low","False","False",267,5650,NA
"A36ZRUGMKQA5KO","Wed Sep 30 2020 10:11:07 GMT-0700 (Pacific Daylight Time)","Wed Sep 30 2020 10:20:49 GMT-0700 (Pacific Daylight Time)","Mozilla/5.0 (X11; CrOS x86_64 13310.91.0) AppleWebKit/537.36 (KHTML, like Gecko) Chrome/85.0.4183.131 Safari/537.36",101,"[0.9, 0.5, 0.1]","[0.8, 0.4, 0.2]","[u'black', u'red', u'blue']","[u'left', u'middle', u'right']","[0.8, 0.4, 0.2]","[u'high', u'low', u'medium']","blue",51,"right","medium","False","False",225,5600,NA
"A36ZRUGMKQA5KO","Wed Sep 30 2020 10:11:07 GMT-0700 (Pacific Daylight Time)","Wed Sep 30 2020 10:20:49 GMT-0700 (Pacific Daylight Time)","Mozilla/5.0 (X11; CrOS x86_64 13310.91.0) AppleWebKit/537.36 (KHTML, like Gecko) Chrome/85.0.4183.131 Safari/537.36",102,"[0.9, 0.5, 0.1]","[0.8, 0.4, 0.2]","[u'black', u'red', u'blue']","[u'left', u'middle', u'right']","[0.8, 0.4, 0.2]","[u'high', u'low', u'medium']","red",50,"middle","low","False","False",214,5550,NA
"A36ZRUGMKQA5KO","Wed Sep 30 2020 10:11:07 GMT-0700 (Pacific Daylight Time)","Wed Sep 30 2020 10:20:49 GMT-0700 (Pacific Daylight Time)","Mozilla/5.0 (X11; CrOS x86_64 13310.91.0) AppleWebKit/537.36 (KHTML, like Gecko) Chrome/85.0.4183.131 Safari/537.36",103,"[0.9, 0.5, 0.1]","[0.8, 0.4, 0.2]","[u'black', u'red', u'blue']","[u'left', u'middle', u'right']","[0.8, 0.4, 0.2]","[u'high', u'low', u'medium']","blue",51,"right","medium","False","False",1047,5500,NA
"A36ZRUGMKQA5KO","Wed Sep 30 2020 10:11:07 GMT-0700 (Pacific Daylight Time)","Wed Sep 30 2020 10:20:49 GMT-0700 (Pacific Daylight Time)","Mozilla/5.0 (X11; CrOS x86_64 13310.91.0) AppleWebKit/537.36 (KHTML, like Gecko) Chrome/85.0.4183.131 Safari/537.36",104,"[0.9, 0.5, 0.1]","[0.8, 0.4, 0.2]","[u'black', u'red', u'blue']","[u'left', u'middle', u'right']","[0.8, 0.4, 0.2]","[u'high', u'low', u'medium']","black",49,"left","high","True","False",377,5600,NA
"A36ZRUGMKQA5KO","Wed Sep 30 2020 10:11:07 GMT-0700 (Pacific Daylight Time)","Wed Sep 30 2020 10:20:49 GMT-0700 (Pacific Daylight Time)","Mozilla/5.0 (X11; CrOS x86_64 13310.91.0) AppleWebKit/537.36 (KHTML, like Gecko) Chrome/85.0.4183.131 Safari/537.36",105,"[0.9, 0.5, 0.1]","[0.8, 0.4, 0.2]","[u'black', u'red', u'blue']","[u'left', u'middle', u'right']","[0.8, 0.4, 0.2]","[u'high', u'low', u'medium']","black",49,"left","high","True","False",247,5700,NA
"A36ZRUGMKQA5KO","Wed Sep 30 2020 10:11:07 GMT-0700 (Pacific Daylight Time)","Wed Sep 30 2020 10:20:49 GMT-0700 (Pacific Daylight Time)","Mozilla/5.0 (X11; CrOS x86_64 13310.91.0) AppleWebKit/537.36 (KHTML, like Gecko) Chrome/85.0.4183.131 Safari/537.36",106,"[0.9, 0.5, 0.1]","[0.8, 0.4, 0.2]","[u'black', u'red', u'blue']","[u'left', u'middle', u'right']","[0.8, 0.4, 0.2]","[u'high', u'low', u'medium']","black",49,"left","high","False","False",262,5650,NA
"A36ZRUGMKQA5KO","Wed Sep 30 2020 10:11:07 GMT-0700 (Pacific Daylight Time)","Wed Sep 30 2020 10:20:49 GMT-0700 (Pacific Daylight Time)","Mozilla/5.0 (X11; CrOS x86_64 13310.91.0) AppleWebKit/537.36 (KHTML, like Gecko) Chrome/85.0.4183.131 Safari/537.36",107,"[0.9, 0.5, 0.1]","[0.8, 0.4, 0.2]","[u'black', u'red', u'blue']","[u'left', u'middle', u'right']","[0.8, 0.4, 0.2]","[u'high', u'low', u'medium']","blue",51,"right","medium","True","False",316,5750,NA
"A36ZRUGMKQA5KO","Wed Sep 30 2020 10:11:07 GMT-0700 (Pacific Daylight Time)","Wed Sep 30 2020 10:20:49 GMT-0700 (Pacific Daylight Time)","Mozilla/5.0 (X11; CrOS x86_64 13310.91.0) AppleWebKit/537.36 (KHTML, like Gecko) Chrome/85.0.4183.131 Safari/537.36",108,"[0.9, 0.5, 0.1]","[0.8, 0.4, 0.2]","[u'black', u'red', u'blue']","[u'left', u'middle', u'right']","[0.8, 0.4, 0.2]","[u'high', u'low', u'medium']","blue",51,"right","medium","False","False",256,5700,NA
"A36ZRUGMKQA5KO","Wed Sep 30 2020 10:11:07 GMT-0700 (Pacific Daylight Time)","Wed Sep 30 2020 10:20:49 GMT-0700 (Pacific Daylight Time)","Mozilla/5.0 (X11; CrOS x86_64 13310.91.0) AppleWebKit/537.36 (KHTML, like Gecko) Chrome/85.0.4183.131 Safari/537.36",109,"[0.9, 0.5, 0.1]","[0.8, 0.4, 0.2]","[u'black', u'red', u'blue']","[u'left', u'middle', u'right']","[0.8, 0.4, 0.2]","[u'high', u'low', u'medium']","black",49,"left","high","True","False",402,5800,NA
"A36ZRUGMKQA5KO","Wed Sep 30 2020 10:11:07 GMT-0700 (Pacific Daylight Time)","Wed Sep 30 2020 10:20:49 GMT-0700 (Pacific Daylight Time)","Mozilla/5.0 (X11; CrOS x86_64 13310.91.0) AppleWebKit/537.36 (KHTML, like Gecko) Chrome/85.0.4183.131 Safari/537.36",110,"[0.9, 0.5, 0.1]","[0.8, 0.4, 0.2]","[u'black', u'red', u'blue']","[u'left', u'middle', u'right']","[0.8, 0.4, 0.2]","[u'high', u'low', u'medium']","black",49,"left","high","True","False",398,5900,NA
"A36ZRUGMKQA5KO","Wed Sep 30 2020 10:11:07 GMT-0700 (Pacific Daylight Time)","Wed Sep 30 2020 10:20:49 GMT-0700 (Pacific Daylight Time)","Mozilla/5.0 (X11; CrOS x86_64 13310.91.0) AppleWebKit/537.36 (KHTML, like Gecko) Chrome/85.0.4183.131 Safari/537.36",111,"[0.9, 0.5, 0.1]","[0.8, 0.4, 0.2]","[u'black', u'red', u'blue']","[u'left', u'middle', u'right']","[0.8, 0.4, 0.2]","[u'high', u'low', u'medium']","black",49,"left","high","True","False",302,6000,NA
"A36ZRUGMKQA5KO","Wed Sep 30 2020 10:11:07 GMT-0700 (Pacific Daylight Time)","Wed Sep 30 2020 10:20:49 GMT-0700 (Pacific Daylight Time)","Mozilla/5.0 (X11; CrOS x86_64 13310.91.0) AppleWebKit/537.36 (KHTML, like Gecko) Chrome/85.0.4183.131 Safari/537.36",112,"[0.9, 0.5, 0.1]","[0.8, 0.4, 0.2]","[u'black', u'red', u'blue']","[u'left', u'middle', u'right']","[0.8, 0.4, 0.2]","[u'high', u'low', u'medium']","black",49,"left","high","True","False",314,6100,NA
"A36ZRUGMKQA5KO","Wed Sep 30 2020 10:11:07 GMT-0700 (Pacific Daylight Time)","Wed Sep 30 2020 10:20:49 GMT-0700 (Pacific Daylight Time)","Mozilla/5.0 (X11; CrOS x86_64 13310.91.0) AppleWebKit/537.36 (KHTML, like Gecko) Chrome/85.0.4183.131 Safari/537.36",113,"[0.9, 0.5, 0.1]","[0.8, 0.4, 0.2]","[u'black', u'red', u'blue']","[u'left', u'middle', u'right']","[0.8, 0.4, 0.2]","[u'high', u'low', u'medium']","black",49,"left","high","True","False",290,6200,NA
"A36ZRUGMKQA5KO","Wed Sep 30 2020 10:11:07 GMT-0700 (Pacific Daylight Time)","Wed Sep 30 2020 10:20:49 GMT-0700 (Pacific Daylight Time)","Mozilla/5.0 (X11; CrOS x86_64 13310.91.0) AppleWebKit/537.36 (KHTML, like Gecko) Chrome/85.0.4183.131 Safari/537.36",114,"[0.9, 0.5, 0.1]","[0.8, 0.4, 0.2]","[u'black', u'red', u'blue']","[u'left', u'middle', u'right']","[0.8, 0.4, 0.2]","[u'high', u'low', u'medium']","black",49,"left","high","True","False",518,6300,NA
"A36ZRUGMKQA5KO","Wed Sep 30 2020 10:11:07 GMT-0700 (Pacific Daylight Time)","Wed Sep 30 2020 10:20:49 GMT-0700 (Pacific Daylight Time)","Mozilla/5.0 (X11; CrOS x86_64 13310.91.0) AppleWebKit/537.36 (KHTML, like Gecko) Chrome/85.0.4183.131 Safari/537.36",115,"[0.9, 0.5, 0.1]","[0.8, 0.4, 0.2]","[u'black', u'red', u'blue']","[u'left', u'middle', u'right']","[0.8, 0.4, 0.2]","[u'high', u'low', u'medium']","black",49,"left","high","True","False",205,6400,NA
"A36ZRUGMKQA5KO","Wed Sep 30 2020 10:11:07 GMT-0700 (Pacific Daylight Time)","Wed Sep 30 2020 10:20:49 GMT-0700 (Pacific Daylight Time)","Mozilla/5.0 (X11; CrOS x86_64 13310.91.0) AppleWebKit/537.36 (KHTML, like Gecko) Chrome/85.0.4183.131 Safari/537.36",116,"[0.9, 0.5, 0.1]","[0.8, 0.4, 0.2]","[u'black', u'red', u'blue']","[u'left', u'middle', u'right']","[0.8, 0.4, 0.2]","[u'high', u'low', u'medium']","black",49,"left","high","True","False",253,6500,NA
"A36ZRUGMKQA5KO","Wed Sep 30 2020 10:11:07 GMT-0700 (Pacific Daylight Time)","Wed Sep 30 2020 10:20:49 GMT-0700 (Pacific Daylight Time)","Mozilla/5.0 (X11; CrOS x86_64 13310.91.0) AppleWebKit/537.36 (KHTML, like Gecko) Chrome/85.0.4183.131 Safari/537.36",117,"[0.9, 0.5, 0.1]","[0.8, 0.4, 0.2]","[u'black', u'red', u'blue']","[u'left', u'middle', u'right']","[0.8, 0.4, 0.2]","[u'high', u'low', u'medium']","black",49,"left","high","False","True",230,6450,NA
"A36ZRUGMKQA5KO","Wed Sep 30 2020 10:11:07 GMT-0700 (Pacific Daylight Time)","Wed Sep 30 2020 10:20:49 GMT-0700 (Pacific Daylight Time)","Mozilla/5.0 (X11; CrOS x86_64 13310.91.0) AppleWebKit/537.36 (KHTML, like Gecko) Chrome/85.0.4183.131 Safari/537.36",118,"[0.9, 0.5, 0.1]","[0.8, 0.4, 0.2]","[u'black', u'red', u'blue']","[u'left', u'middle', u'right']","[0.8, 0.4, 0.2]","[u'medium', u'low', u'high']","blue",51,"right","high","True","False",297,6550,NA
"A36ZRUGMKQA5KO","Wed Sep 30 2020 10:11:07 GMT-0700 (Pacific Daylight Time)","Wed Sep 30 2020 10:20:49 GMT-0700 (Pacific Daylight Time)","Mozilla/5.0 (X11; CrOS x86_64 13310.91.0) AppleWebKit/537.36 (KHTML, like Gecko) Chrome/85.0.4183.131 Safari/537.36",119,"[0.9, 0.5, 0.1]","[0.8, 0.4, 0.2]","[u'black', u'red', u'blue']","[u'left', u'middle', u'right']","[0.8, 0.4, 0.2]","[u'medium', u'low', u'high']","blue",51,"right","high","True","False",225,6650,NA
"A36ZRUGMKQA5KO","Wed Sep 30 2020 10:11:07 GMT-0700 (Pacific Daylight Time)","Wed Sep 30 2020 10:20:49 GMT-0700 (Pacific Daylight Time)","Mozilla/5.0 (X11; CrOS x86_64 13310.91.0) AppleWebKit/537.36 (KHTML, like Gecko) Chrome/85.0.4183.131 Safari/537.36",120,"[0.9, 0.5, 0.1]","[0.8, 0.4, 0.2]","[u'black', u'red', u'blue']","[u'left', u'middle', u'right']","[0.8, 0.4, 0.2]","[u'medium', u'low', u'high']","blue",51,"right","high","True","False",295,6750,NA
"A36ZRUGMKQA5KO","Wed Sep 30 2020 10:11:07 GMT-0700 (Pacific Daylight Time)","Wed Sep 30 2020 10:20:49 GMT-0700 (Pacific Daylight Time)","Mozilla/5.0 (X11; CrOS x86_64 13310.91.0) AppleWebKit/537.36 (KHTML, like Gecko) Chrome/85.0.4183.131 Safari/537.36",121,"[0.9, 0.5, 0.1]","[0.8, 0.4, 0.2]","[u'black', u'red', u'blue']","[u'left', u'middle', u'right']","[0.8, 0.4, 0.2]","[u'low', u'high', u'medium']","blue",51,"right","medium","False","False",712,6700,NA
"A36ZRUGMKQA5KO","Wed Sep 30 2020 10:11:07 GMT-0700 (Pacific Daylight Time)","Wed Sep 30 2020 10:20:49 GMT-0700 (Pacific Daylight Time)","Mozilla/5.0 (X11; CrOS x86_64 13310.91.0) AppleWebKit/537.36 (KHTML, like Gecko) Chrome/85.0.4183.131 Safari/537.36",122,"[0.9, 0.5, 0.1]","[0.8, 0.4, 0.2]","[u'black', u'red', u'blue']","[u'left', u'middle', u'right']","[0.8, 0.4, 0.2]","[u'low', u'high', u'medium']","black",49,"left","low","False","False",310,6650,NA
"A36ZRUGMKQA5KO","Wed Sep 30 2020 10:11:07 GMT-0700 (Pacific Daylight Time)","Wed Sep 30 2020 10:20:49 GMT-0700 (Pacific Daylight Time)","Mozilla/5.0 (X11; CrOS x86_64 13310.91.0) AppleWebKit/537.36 (KHTML, like Gecko) Chrome/85.0.4183.131 Safari/537.36",123,"[0.9, 0.5, 0.1]","[0.8, 0.4, 0.2]","[u'black', u'red', u'blue']","[u'left', u'middle', u'right']","[0.8, 0.4, 0.2]","[u'low', u'high', u'medium']","red",50,"middle","high","True","False",234,6750,NA
"A36ZRUGMKQA5KO","Wed Sep 30 2020 10:11:07 GMT-0700 (Pacific Daylight Time)","Wed Sep 30 2020 10:20:49 GMT-0700 (Pacific Daylight Time)","Mozilla/5.0 (X11; CrOS x86_64 13310.91.0) AppleWebKit/537.36 (KHTML, like Gecko) Chrome/85.0.4183.131 Safari/537.36",124,"[0.9, 0.5, 0.1]","[0.8, 0.4, 0.2]","[u'black', u'red', u'blue']","[u'left', u'middle', u'right']","[0.8, 0.4, 0.2]","[u'low', u'high', u'medium']","red",50,"middle","high","True","False",244,6850,NA
"A36ZRUGMKQA5KO","Wed Sep 30 2020 10:11:07 GMT-0700 (Pacific Daylight Time)","Wed Sep 30 2020 10:20:49 GMT-0700 (Pacific Daylight Time)","Mozilla/5.0 (X11; CrOS x86_64 13310.91.0) AppleWebKit/537.36 (KHTML, like Gecko) Chrome/85.0.4183.131 Safari/537.36",125,"[0.9, 0.5, 0.1]","[0.8, 0.4, 0.2]","[u'black', u'red', u'blue']","[u'left', u'middle', u'right']","[0.8, 0.4, 0.2]","[u'low', u'high', u'medium']","red",50,"middle","high","True","False",208,6950,NA
"A36ZRUGMKQA5KO","Wed Sep 30 2020 10:11:07 GMT-0700 (Pacific Daylight Time)","Wed Sep 30 2020 10:20:49 GMT-0700 (Pacific Daylight Time)","Mozilla/5.0 (X11; CrOS x86_64 13310.91.0) AppleWebKit/537.36 (KHTML, like Gecko) Chrome/85.0.4183.131 Safari/537.36",126,"[0.9, 0.5, 0.1]","[0.8, 0.4, 0.2]","[u'black', u'red', u'blue']","[u'left', u'middle', u'right']","[0.8, 0.4, 0.2]","[u'low', u'high', u'medium']","red",50,"middle","high","True","False",341,7050,NA
"A36ZRUGMKQA5KO","Wed Sep 30 2020 10:11:07 GMT-0700 (Pacific Daylight Time)","Wed Sep 30 2020 10:20:49 GMT-0700 (Pacific Daylight Time)","Mozilla/5.0 (X11; CrOS x86_64 13310.91.0) AppleWebKit/537.36 (KHTML, like Gecko) Chrome/85.0.4183.131 Safari/537.36",127,"[0.9, 0.5, 0.1]","[0.8, 0.4, 0.2]","[u'black', u'red', u'blue']","[u'left', u'middle', u'right']","[0.8, 0.4, 0.2]","[u'low', u'high', u'medium']","red",50,"middle","high","True","False",252,7150,NA
"A36ZRUGMKQA5KO","Wed Sep 30 2020 10:11:07 GMT-0700 (Pacific Daylight Time)","Wed Sep 30 2020 10:20:49 GMT-0700 (Pacific Daylight Time)","Mozilla/5.0 (X11; CrOS x86_64 13310.91.0) AppleWebKit/537.36 (KHTML, like Gecko) Chrome/85.0.4183.131 Safari/537.36",128,"[0.9, 0.5, 0.1]","[0.8, 0.4, 0.2]","[u'black', u'red', u'blue']","[u'left', u'middle', u'right']","[0.8, 0.4, 0.2]","[u'low', u'high', u'medium']","red",50,"middle","high","True","False",252,7250,NA
"A36ZRUGMKQA5KO","Wed Sep 30 2020 10:11:07 GMT-0700 (Pacific Daylight Time)","Wed Sep 30 2020 10:20:49 GMT-0700 (Pacific Daylight Time)","Mozilla/5.0 (X11; CrOS x86_64 13310.91.0) AppleWebKit/537.36 (KHTML, like Gecko) Chrome/85.0.4183.131 Safari/537.36",129,"[0.9, 0.5, 0.1]","[0.8, 0.4, 0.2]","[u'black', u'red', u'blue']","[u'left', u'middle', u'right']","[0.8, 0.4, 0.2]","[u'low', u'high', u'medium']","red",50,"middle","high","True","False",144,7350,NA
"A36ZRUGMKQA5KO","Wed Sep 30 2020 10:11:07 GMT-0700 (Pacific Daylight Time)","Wed Sep 30 2020 10:20:49 GMT-0700 (Pacific Daylight Time)","Mozilla/5.0 (X11; CrOS x86_64 13310.91.0) AppleWebKit/537.36 (KHTML, like Gecko) Chrome/85.0.4183.131 Safari/537.36",130,"[0.9, 0.5, 0.1]","[0.8, 0.4, 0.2]","[u'black', u'red', u'blue']","[u'left', u'middle', u'right']","[0.8, 0.4, 0.2]","[u'low', u'high', u'medium']","red",50,"middle","high","True","False",259,7450,NA
"A36ZRUGMKQA5KO","Wed Sep 30 2020 10:11:07 GMT-0700 (Pacific Daylight Time)","Wed Sep 30 2020 10:20:49 GMT-0700 (Pacific Daylight Time)","Mozilla/5.0 (X11; CrOS x86_64 13310.91.0) AppleWebKit/537.36 (KHTML, like Gecko) Chrome/85.0.4183.131 Safari/537.36",131,"[0.9, 0.5, 0.1]","[0.8, 0.4, 0.2]","[u'black', u'red', u'blue']","[u'left', u'middle', u'right']","[0.8, 0.4, 0.2]","[u'low', u'high', u'medium']","red",50,"middle","high","True","True",483,7550,NA
"A36ZRUGMKQA5KO","Wed Sep 30 2020 10:11:07 GMT-0700 (Pacific Daylight Time)","Wed Sep 30 2020 10:20:49 GMT-0700 (Pacific Daylight Time)","Mozilla/5.0 (X11; CrOS x86_64 13310.91.0) AppleWebKit/537.36 (KHTML, like Gecko) Chrome/85.0.4183.131 Safari/537.36",132,"[0.9, 0.5, 0.1]","[0.8, 0.4, 0.2]","[u'black', u'red', u'blue']","[u'left', u'middle', u'right']","[0.8, 0.4, 0.2]","[u'high', u'medium', u'low']","red",50,"middle","medium","True","False",223,7650,NA
"A36ZRUGMKQA5KO","Wed Sep 30 2020 10:11:07 GMT-0700 (Pacific Daylight Time)","Wed Sep 30 2020 10:20:49 GMT-0700 (Pacific Daylight Time)","Mozilla/5.0 (X11; CrOS x86_64 13310.91.0) AppleWebKit/537.36 (KHTML, like Gecko) Chrome/85.0.4183.131 Safari/537.36",133,"[0.9, 0.5, 0.1]","[0.8, 0.4, 0.2]","[u'black', u'red', u'blue']","[u'left', u'middle', u'right']","[0.8, 0.4, 0.2]","[u'high', u'medium', u'low']","red",50,"middle","medium","False","False",203,7600,NA
"A36ZRUGMKQA5KO","Wed Sep 30 2020 10:11:07 GMT-0700 (Pacific Daylight Time)","Wed Sep 30 2020 10:20:49 GMT-0700 (Pacific Daylight Time)","Mozilla/5.0 (X11; CrOS x86_64 13310.91.0) AppleWebKit/537.36 (KHTML, like Gecko) Chrome/85.0.4183.131 Safari/537.36",134,"[0.9, 0.5, 0.1]","[0.8, 0.4, 0.2]","[u'black', u'red', u'blue']","[u'left', u'middle', u'right']","[0.8, 0.4, 0.2]","[u'high', u'medium', u'low']","blue",51,"right","low","False","False",243,7550,NA
"A36ZRUGMKQA5KO","Wed Sep 30 2020 10:11:07 GMT-0700 (Pacific Daylight Time)","Wed Sep 30 2020 10:20:49 GMT-0700 (Pacific Daylight Time)","Mozilla/5.0 (X11; CrOS x86_64 13310.91.0) AppleWebKit/537.36 (KHTML, like Gecko) Chrome/85.0.4183.131 Safari/537.36",135,"[0.9, 0.5, 0.1]","[0.8, 0.4, 0.2]","[u'black', u'red', u'blue']","[u'left', u'middle', u'right']","[0.8, 0.4, 0.2]","[u'high', u'medium', u'low']","black",49,"left","high","True","False",274,7650,NA
"A36ZRUGMKQA5KO","Wed Sep 30 2020 10:11:07 GMT-0700 (Pacific Daylight Time)","Wed Sep 30 2020 10:20:49 GMT-0700 (Pacific Daylight Time)","Mozilla/5.0 (X11; CrOS x86_64 13310.91.0) AppleWebKit/537.36 (KHTML, like Gecko) Chrome/85.0.4183.131 Safari/537.36",136,"[0.9, 0.5, 0.1]","[0.8, 0.4, 0.2]","[u'black', u'red', u'blue']","[u'left', u'middle', u'right']","[0.8, 0.4, 0.2]","[u'high', u'medium', u'low']","black",49,"left","high","True","False",228,7750,NA
"A36ZRUGMKQA5KO","Wed Sep 30 2020 10:11:07 GMT-0700 (Pacific Daylight Time)","Wed Sep 30 2020 10:20:49 GMT-0700 (Pacific Daylight Time)","Mozilla/5.0 (X11; CrOS x86_64 13310.91.0) AppleWebKit/537.36 (KHTML, like Gecko) Chrome/85.0.4183.131 Safari/537.36",137,"[0.9, 0.5, 0.1]","[0.8, 0.4, 0.2]","[u'black', u'red', u'blue']","[u'left', u'middle', u'right']","[0.8, 0.4, 0.2]","[u'high', u'medium', u'low']","black",49,"left","high","True","False",127,7850,NA
"A36ZRUGMKQA5KO","Wed Sep 30 2020 10:11:07 GMT-0700 (Pacific Daylight Time)","Wed Sep 30 2020 10:20:49 GMT-0700 (Pacific Daylight Time)","Mozilla/5.0 (X11; CrOS x86_64 13310.91.0) AppleWebKit/537.36 (KHTML, like Gecko) Chrome/85.0.4183.131 Safari/537.36",138,"[0.9, 0.5, 0.1]","[0.8, 0.4, 0.2]","[u'black', u'red', u'blue']","[u'left', u'middle', u'right']","[0.8, 0.4, 0.2]","[u'high', u'medium', u'low']","black",49,"left","high","True","False",50,7950,NA
"A36ZRUGMKQA5KO","Wed Sep 30 2020 10:11:07 GMT-0700 (Pacific Daylight Time)","Wed Sep 30 2020 10:20:49 GMT-0700 (Pacific Daylight Time)","Mozilla/5.0 (X11; CrOS x86_64 13310.91.0) AppleWebKit/537.36 (KHTML, like Gecko) Chrome/85.0.4183.131 Safari/537.36",139,"[0.9, 0.5, 0.1]","[0.8, 0.4, 0.2]","[u'black', u'red', u'blue']","[u'left', u'middle', u'right']","[0.8, 0.4, 0.2]","[u'high', u'medium', u'low']","black",49,"left","high","True","False",316,8050,NA
"A36ZRUGMKQA5KO","Wed Sep 30 2020 10:11:07 GMT-0700 (Pacific Daylight Time)","Wed Sep 30 2020 10:20:49 GMT-0700 (Pacific Daylight Time)","Mozilla/5.0 (X11; CrOS x86_64 13310.91.0) AppleWebKit/537.36 (KHTML, like Gecko) Chrome/85.0.4183.131 Safari/537.36",140,"[0.9, 0.5, 0.1]","[0.8, 0.4, 0.2]","[u'black', u'red', u'blue']","[u'left', u'middle', u'right']","[0.8, 0.4, 0.2]","[u'high', u'medium', u'low']","black",49,"left","high","True","False",274,8150,NA
"A36ZRUGMKQA5KO","Wed Sep 30 2020 10:11:07 GMT-0700 (Pacific Daylight Time)","Wed Sep 30 2020 10:20:49 GMT-0700 (Pacific Daylight Time)","Mozilla/5.0 (X11; CrOS x86_64 13310.91.0) AppleWebKit/537.36 (KHTML, like Gecko) Chrome/85.0.4183.131 Safari/537.36",141,"[0.9, 0.5, 0.1]","[0.8, 0.4, 0.2]","[u'black', u'red', u'blue']","[u'left', u'middle', u'right']","[0.8, 0.4, 0.2]","[u'high', u'medium', u'low']","black",49,"left","high","False","False",14,8100,NA
"A36ZRUGMKQA5KO","Wed Sep 30 2020 10:11:07 GMT-0700 (Pacific Daylight Time)","Wed Sep 30 2020 10:20:49 GMT-0700 (Pacific Daylight Time)","Mozilla/5.0 (X11; CrOS x86_64 13310.91.0) AppleWebKit/537.36 (KHTML, like Gecko) Chrome/85.0.4183.131 Safari/537.36",142,"[0.9, 0.5, 0.1]","[0.8, 0.4, 0.2]","[u'black', u'red', u'blue']","[u'left', u'middle', u'right']","[0.8, 0.4, 0.2]","[u'high', u'medium', u'low']","red",50,"middle","medium","False","False",342,8050,NA
"A36ZRUGMKQA5KO","Wed Sep 30 2020 10:11:07 GMT-0700 (Pacific Daylight Time)","Wed Sep 30 2020 10:20:49 GMT-0700 (Pacific Daylight Time)","Mozilla/5.0 (X11; CrOS x86_64 13310.91.0) AppleWebKit/537.36 (KHTML, like Gecko) Chrome/85.0.4183.131 Safari/537.36",143,"[0.9, 0.5, 0.1]","[0.8, 0.4, 0.2]","[u'black', u'red', u'blue']","[u'left', u'middle', u'right']","[0.8, 0.4, 0.2]","[u'high', u'medium', u'low']","blue",51,"right","low","False","False",114,8000,NA
"A36ZRUGMKQA5KO","Wed Sep 30 2020 10:11:07 GMT-0700 (Pacific Daylight Time)","Wed Sep 30 2020 10:20:49 GMT-0700 (Pacific Daylight Time)","Mozilla/5.0 (X11; CrOS x86_64 13310.91.0) AppleWebKit/537.36 (KHTML, like Gecko) Chrome/85.0.4183.131 Safari/537.36",144,"[0.9, 0.5, 0.1]","[0.8, 0.4, 0.2]","[u'black', u'red', u'blue']","[u'left', u'middle', u'right']","[0.8, 0.4, 0.2]","[u'high', u'medium', u'low']","black",49,"left","high","True","False",299,8100,NA
"A36ZRUGMKQA5KO","Wed Sep 30 2020 10:11:07 GMT-0700 (Pacific Daylight Time)","Wed Sep 30 2020 10:20:49 GMT-0700 (Pacific Daylight Time)","Mozilla/5.0 (X11; CrOS x86_64 13310.91.0) AppleWebKit/537.36 (KHTML, like Gecko) Chrome/85.0.4183.131 Safari/537.36",145,"[0.9, 0.5, 0.1]","[0.8, 0.4, 0.2]","[u'black', u'red', u'blue']","[u'left', u'middle', u'right']","[0.8, 0.4, 0.2]","[u'high', u'medium', u'low']","black",49,"left","high","True","False",181,8200,NA
"A36ZRUGMKQA5KO","Wed Sep 30 2020 10:11:07 GMT-0700 (Pacific Daylight Time)","Wed Sep 30 2020 10:20:49 GMT-0700 (Pacific Daylight Time)","Mozilla/5.0 (X11; CrOS x86_64 13310.91.0) AppleWebKit/537.36 (KHTML, like Gecko) Chrome/85.0.4183.131 Safari/537.36",146,"[0.9, 0.5, 0.1]","[0.8, 0.4, 0.2]","[u'black', u'red', u'blue']","[u'left', u'middle', u'right']","[0.8, 0.4, 0.2]","[u'high', u'medium', u'low']","black",49,"left","high","True","False",537,8300,NA
"A36ZRUGMKQA5KO","Wed Sep 30 2020 10:11:07 GMT-0700 (Pacific Daylight Time)","Wed Sep 30 2020 10:20:49 GMT-0700 (Pacific Daylight Time)","Mozilla/5.0 (X11; CrOS x86_64 13310.91.0) AppleWebKit/537.36 (KHTML, like Gecko) Chrome/85.0.4183.131 Safari/537.36",147,"[0.9, 0.5, 0.1]","[0.8, 0.4, 0.2]","[u'black', u'red', u'blue']","[u'left', u'middle', u'right']","[0.8, 0.4, 0.2]","[u'high', u'medium', u'low']","black",49,"left","high","True","False",212,8400,NA
"A36ZRUGMKQA5KO","Wed Sep 30 2020 10:11:07 GMT-0700 (Pacific Daylight Time)","Wed Sep 30 2020 10:20:49 GMT-0700 (Pacific Daylight Time)","Mozilla/5.0 (X11; CrOS x86_64 13310.91.0) AppleWebKit/537.36 (KHTML, like Gecko) Chrome/85.0.4183.131 Safari/537.36",148,"[0.9, 0.5, 0.1]","[0.8, 0.4, 0.2]","[u'black', u'red', u'blue']","[u'left', u'middle', u'right']","[0.8, 0.4, 0.2]","[u'high', u'medium', u'low']","black",49,"left","high","True","False",135,8500,NA
"A36ZRUGMKQA5KO","Wed Sep 30 2020 10:11:07 GMT-0700 (Pacific Daylight Time)","Wed Sep 30 2020 10:20:49 GMT-0700 (Pacific Daylight Time)","Mozilla/5.0 (X11; CrOS x86_64 13310.91.0) AppleWebKit/537.36 (KHTML, like Gecko) Chrome/85.0.4183.131 Safari/537.36",149,"[0.9, 0.5, 0.1]","[0.8, 0.4, 0.2]","[u'black', u'red', u'blue']","[u'left', u'middle', u'right']","[0.8, 0.4, 0.2]","[u'high', u'medium', u'low']","black",49,"left","high","True","False",231,8600,NA
"A36ZRUGMKQA5KO","Wed Sep 30 2020 10:11:07 GMT-0700 (Pacific Daylight Time)","Wed Sep 30 2020 10:20:49 GMT-0700 (Pacific Daylight Time)","Mozilla/5.0 (X11; CrOS x86_64 13310.91.0) AppleWebKit/537.36 (KHTML, like Gecko) Chrome/85.0.4183.131 Safari/537.36",150,"[0.9, 0.5, 0.1]","[0.8, 0.4, 0.2]","[u'black', u'red', u'blue']","[u'left', u'middle', u'right']","[0.8, 0.4, 0.2]","[u'high', u'medium', u'low']","black",49,"left","high","True","False",244,8700,NA
"A36ZRUGMKQA5KO","Wed Sep 30 2020 10:11:07 GMT-0700 (Pacific Daylight Time)","Wed Sep 30 2020 10:20:49 GMT-0700 (Pacific Daylight Time)","Mozilla/5.0 (X11; CrOS x86_64 13310.91.0) AppleWebKit/537.36 (KHTML, like Gecko) Chrome/85.0.4183.131 Safari/537.36",151,"[0.9, 0.5, 0.1]","[0.8, 0.4, 0.2]","[u'black', u'red', u'blue']","[u'left', u'middle', u'right']","[0.8, 0.4, 0.2]","[u'high', u'medium', u'low']","black",49,"left","high","True","False",128,8800,NA
"A36ZRUGMKQA5KO","Wed Sep 30 2020 10:11:07 GMT-0700 (Pacific Daylight Time)","Wed Sep 30 2020 10:20:49 GMT-0700 (Pacific Daylight Time)","Mozilla/5.0 (X11; CrOS x86_64 13310.91.0) AppleWebKit/537.36 (KHTML, like Gecko) Chrome/85.0.4183.131 Safari/537.36",152,"[0.9, 0.5, 0.1]","[0.8, 0.4, 0.2]","[u'black', u'red', u'blue']","[u'left', u'middle', u'right']","[0.8, 0.4, 0.2]","[u'high', u'medium', u'low']","black",49,"left","high","True","True",171,8900,NA
"A36ZRUGMKQA5KO","Wed Sep 30 2020 10:11:07 GMT-0700 (Pacific Daylight Time)","Wed Sep 30 2020 10:20:49 GMT-0700 (Pacific Daylight Time)","Mozilla/5.0 (X11; CrOS x86_64 13310.91.0) AppleWebKit/537.36 (KHTML, like Gecko) Chrome/85.0.4183.131 Safari/537.36",153,"[0.9, 0.5, 0.1]","[0.8, 0.4, 0.2]","[u'black', u'red', u'blue']","[u'left', u'middle', u'right']","[0.8, 0.4, 0.2]","[u'medium', u'low', u'high']","black",49,"left","medium","False","False",234,8850,NA
"A36ZRUGMKQA5KO","Wed Sep 30 2020 10:11:07 GMT-0700 (Pacific Daylight Time)","Wed Sep 30 2020 10:20:49 GMT-0700 (Pacific Daylight Time)","Mozilla/5.0 (X11; CrOS x86_64 13310.91.0) AppleWebKit/537.36 (KHTML, like Gecko) Chrome/85.0.4183.131 Safari/537.36",154,"[0.9, 0.5, 0.1]","[0.8, 0.4, 0.2]","[u'black', u'red', u'blue']","[u'left', u'middle', u'right']","[0.8, 0.4, 0.2]","[u'medium', u'low', u'high']","blue",51,"right","high","True","False",355,8950,NA
"A36ZRUGMKQA5KO","Wed Sep 30 2020 10:11:07 GMT-0700 (Pacific Daylight Time)","Wed Sep 30 2020 10:20:49 GMT-0700 (Pacific Daylight Time)","Mozilla/5.0 (X11; CrOS x86_64 13310.91.0) AppleWebKit/537.36 (KHTML, like Gecko) Chrome/85.0.4183.131 Safari/537.36",155,"[0.9, 0.5, 0.1]","[0.8, 0.4, 0.2]","[u'black', u'red', u'blue']","[u'left', u'middle', u'right']","[0.8, 0.4, 0.2]","[u'medium', u'low', u'high']","blue",51,"right","high","True","False",166,9050,NA
"A36ZRUGMKQA5KO","Wed Sep 30 2020 10:11:07 GMT-0700 (Pacific Daylight Time)","Wed Sep 30 2020 10:20:49 GMT-0700 (Pacific Daylight Time)","Mozilla/5.0 (X11; CrOS x86_64 13310.91.0) AppleWebKit/537.36 (KHTML, like Gecko) Chrome/85.0.4183.131 Safari/537.36",156,"[0.9, 0.5, 0.1]","[0.8, 0.4, 0.2]","[u'black', u'red', u'blue']","[u'left', u'middle', u'right']","[0.8, 0.4, 0.2]","[u'medium', u'low', u'high']","blue",51,"right","high","True","False",124,9150,NA
"A36ZRUGMKQA5KO","Wed Sep 30 2020 10:11:07 GMT-0700 (Pacific Daylight Time)","Wed Sep 30 2020 10:20:49 GMT-0700 (Pacific Daylight Time)","Mozilla/5.0 (X11; CrOS x86_64 13310.91.0) AppleWebKit/537.36 (KHTML, like Gecko) Chrome/85.0.4183.131 Safari/537.36",157,"[0.9, 0.5, 0.1]","[0.8, 0.4, 0.2]","[u'black', u'red', u'blue']","[u'left', u'middle', u'right']","[0.8, 0.4, 0.2]","[u'medium', u'low', u'high']","blue",51,"right","high","True","False",219,9250,NA
"A36ZRUGMKQA5KO","Wed Sep 30 2020 10:11:07 GMT-0700 (Pacific Daylight Time)","Wed Sep 30 2020 10:20:49 GMT-0700 (Pacific Daylight Time)","Mozilla/5.0 (X11; CrOS x86_64 13310.91.0) AppleWebKit/537.36 (KHTML, like Gecko) Chrome/85.0.4183.131 Safari/537.36",158,"[0.9, 0.5, 0.1]","[0.8, 0.4, 0.2]","[u'black', u'red', u'blue']","[u'left', u'middle', u'right']","[0.8, 0.4, 0.2]","[u'medium', u'low', u'high']","blue",51,"right","high","True","False",66,9350,NA
"A36ZRUGMKQA5KO","Wed Sep 30 2020 10:11:07 GMT-0700 (Pacific Daylight Time)","Wed Sep 30 2020 10:20:49 GMT-0700 (Pacific Daylight Time)","Mozilla/5.0 (X11; CrOS x86_64 13310.91.0) AppleWebKit/537.36 (KHTML, like Gecko) Chrome/85.0.4183.131 Safari/537.36",159,"[0.9, 0.5, 0.1]","[0.8, 0.4, 0.2]","[u'black', u'red', u'blue']","[u'left', u'middle', u'right']","[0.8, 0.4, 0.2]","[u'medium', u'low', u'high']","blue",51,"right","high","True","False",42,9450,NA
"A36ZRUGMKQA5KO","Wed Sep 30 2020 10:11:07 GMT-0700 (Pacific Daylight Time)","Wed Sep 30 2020 10:20:49 GMT-0700 (Pacific Daylight Time)","Mozilla/5.0 (X11; CrOS x86_64 13310.91.0) AppleWebKit/537.36 (KHTML, like Gecko) Chrome/85.0.4183.131 Safari/537.36",160,"[0.9, 0.5, 0.1]","[0.8, 0.4, 0.2]","[u'black', u'red', u'blue']","[u'left', u'middle', u'right']","[0.8, 0.4, 0.2]","[u'medium', u'low', u'high']","blue",51,"right","high","False","False",460,9400,NA
