"src_subject_id","start_time","end_time","browser","index","first_half_probabilities","second_half_probabilities","deck_color","deck_position","deck_probabilities","deck_contingencies","response_color","key_press","response_position","response_probability","reward_type","trial_type","rt","reward_tally","exclusion_reason"
"A2CWJRAEFZ44HU","Tue Sep 29 2020 16:11:59 GMT-0700 (Pacific Daylight Time)","Tue Sep 29 2020 16:20:45 GMT-0700 (Pacific Daylight Time)","Mozilla/5.0 (Windows NT 10.0; Win64; x64) AppleWebKit/537.36 (KHTML, like Gecko) Chrome/85.0.4183.121 Safari/537.36",1,"[0.9, 0.5, 0.1]","[0.8, 0.4, 0.2]","[u'blue', u'red', u'black']","[u'left', u'middle', u'right']","[0.9, 0.5, 0.1]","[u'low', u'high', u'medium']","blue",49,"left","low","False","False",555,-50,NA
"A2CWJRAEFZ44HU","Tue Sep 29 2020 16:11:59 GMT-0700 (Pacific Daylight Time)","Tue Sep 29 2020 16:20:45 GMT-0700 (Pacific Daylight Time)","Mozilla/5.0 (Windows NT 10.0; Win64; x64) AppleWebKit/537.36 (KHTML, like Gecko) Chrome/85.0.4183.121 Safari/537.36",2,"[0.9, 0.5, 0.1]","[0.8, 0.4, 0.2]","[u'blue', u'red', u'black']","[u'left', u'middle', u'right']","[0.9, 0.5, 0.1]","[u'low', u'high', u'medium']","red",50,"middle","high","True","False",401,50,NA
"A2CWJRAEFZ44HU","Tue Sep 29 2020 16:11:59 GMT-0700 (Pacific Daylight Time)","Tue Sep 29 2020 16:20:45 GMT-0700 (Pacific Daylight Time)","Mozilla/5.0 (Windows NT 10.0; Win64; x64) AppleWebKit/537.36 (KHTML, like Gecko) Chrome/85.0.4183.121 Safari/537.36",3,"[0.9, 0.5, 0.1]","[0.8, 0.4, 0.2]","[u'blue', u'red', u'black']","[u'left', u'middle', u'right']","[0.9, 0.5, 0.1]","[u'low', u'high', u'medium']","red",50,"middle","high","True","False",281,150,NA
"A2CWJRAEFZ44HU","Tue Sep 29 2020 16:11:59 GMT-0700 (Pacific Daylight Time)","Tue Sep 29 2020 16:20:45 GMT-0700 (Pacific Daylight Time)","Mozilla/5.0 (Windows NT 10.0; Win64; x64) AppleWebKit/537.36 (KHTML, like Gecko) Chrome/85.0.4183.121 Safari/537.36",4,"[0.9, 0.5, 0.1]","[0.8, 0.4, 0.2]","[u'blue', u'red', u'black']","[u'left', u'middle', u'right']","[0.9, 0.5, 0.1]","[u'low', u'high', u'medium']","red",50,"middle","high","True","False",298,250,NA
"A2CWJRAEFZ44HU","Tue Sep 29 2020 16:11:59 GMT-0700 (Pacific Daylight Time)","Tue Sep 29 2020 16:20:45 GMT-0700 (Pacific Daylight Time)","Mozilla/5.0 (Windows NT 10.0; Win64; x64) AppleWebKit/537.36 (KHTML, like Gecko) Chrome/85.0.4183.121 Safari/537.36",5,"[0.9, 0.5, 0.1]","[0.8, 0.4, 0.2]","[u'blue', u'red', u'black']","[u'left', u'middle', u'right']","[0.9, 0.5, 0.1]","[u'low', u'high', u'medium']","red",50,"middle","high","True","False",269,350,NA
"A2CWJRAEFZ44HU","Tue Sep 29 2020 16:11:59 GMT-0700 (Pacific Daylight Time)","Tue Sep 29 2020 16:20:45 GMT-0700 (Pacific Daylight Time)","Mozilla/5.0 (Windows NT 10.0; Win64; x64) AppleWebKit/537.36 (KHTML, like Gecko) Chrome/85.0.4183.121 Safari/537.36",6,"[0.9, 0.5, 0.1]","[0.8, 0.4, 0.2]","[u'blue', u'red', u'black']","[u'left', u'middle', u'right']","[0.9, 0.5, 0.1]","[u'low', u'high', u'medium']","red",50,"middle","high","True","False",279,450,NA
"A2CWJRAEFZ44HU","Tue Sep 29 2020 16:11:59 GMT-0700 (Pacific Daylight Time)","Tue Sep 29 2020 16:20:45 GMT-0700 (Pacific Daylight Time)","Mozilla/5.0 (Windows NT 10.0; Win64; x64) AppleWebKit/537.36 (KHTML, like Gecko) Chrome/85.0.4183.121 Safari/537.36",7,"[0.9, 0.5, 0.1]","[0.8, 0.4, 0.2]","[u'blue', u'red', u'black']","[u'left', u'middle', u'right']","[0.9, 0.5, 0.1]","[u'low', u'high', u'medium']","red",50,"middle","high","True","False",245,550,NA
"A2CWJRAEFZ44HU","Tue Sep 29 2020 16:11:59 GMT-0700 (Pacific Daylight Time)","Tue Sep 29 2020 16:20:45 GMT-0700 (Pacific Daylight Time)","Mozilla/5.0 (Windows NT 10.0; Win64; x64) AppleWebKit/537.36 (KHTML, like Gecko) Chrome/85.0.4183.121 Safari/537.36",8,"[0.9, 0.5, 0.1]","[0.8, 0.4, 0.2]","[u'blue', u'red', u'black']","[u'left', u'middle', u'right']","[0.9, 0.5, 0.1]","[u'low', u'high', u'medium']","red",50,"middle","high","True","False",336,650,NA
"A2CWJRAEFZ44HU","Tue Sep 29 2020 16:11:59 GMT-0700 (Pacific Daylight Time)","Tue Sep 29 2020 16:20:45 GMT-0700 (Pacific Daylight Time)","Mozilla/5.0 (Windows NT 10.0; Win64; x64) AppleWebKit/537.36 (KHTML, like Gecko) Chrome/85.0.4183.121 Safari/537.36",9,"[0.9, 0.5, 0.1]","[0.8, 0.4, 0.2]","[u'blue', u'red', u'black']","[u'left', u'middle', u'right']","[0.9, 0.5, 0.1]","[u'low', u'high', u'medium']","red",50,"middle","high","True","False",370,750,NA
"A2CWJRAEFZ44HU","Tue Sep 29 2020 16:11:59 GMT-0700 (Pacific Daylight Time)","Tue Sep 29 2020 16:20:45 GMT-0700 (Pacific Daylight Time)","Mozilla/5.0 (Windows NT 10.0; Win64; x64) AppleWebKit/537.36 (KHTML, like Gecko) Chrome/85.0.4183.121 Safari/537.36",10,"[0.9, 0.5, 0.1]","[0.8, 0.4, 0.2]","[u'blue', u'red', u'black']","[u'left', u'middle', u'right']","[0.9, 0.5, 0.1]","[u'low', u'high', u'medium']","red",50,"middle","high","True","True",306,850,NA
"A2CWJRAEFZ44HU","Tue Sep 29 2020 16:11:59 GMT-0700 (Pacific Daylight Time)","Tue Sep 29 2020 16:20:45 GMT-0700 (Pacific Daylight Time)","Mozilla/5.0 (Windows NT 10.0; Win64; x64) AppleWebKit/537.36 (KHTML, like Gecko) Chrome/85.0.4183.121 Safari/537.36",11,"[0.9, 0.5, 0.1]","[0.8, 0.4, 0.2]","[u'blue', u'red', u'black']","[u'left', u'middle', u'right']","[0.9, 0.5, 0.1]","[u'low', u'medium', u'high']","red",50,"middle","medium","False","False",258,800,NA
"A2CWJRAEFZ44HU","Tue Sep 29 2020 16:11:59 GMT-0700 (Pacific Daylight Time)","Tue Sep 29 2020 16:20:45 GMT-0700 (Pacific Daylight Time)","Mozilla/5.0 (Windows NT 10.0; Win64; x64) AppleWebKit/537.36 (KHTML, like Gecko) Chrome/85.0.4183.121 Safari/537.36",12,"[0.9, 0.5, 0.1]","[0.8, 0.4, 0.2]","[u'blue', u'red', u'black']","[u'left', u'middle', u'right']","[0.9, 0.5, 0.1]","[u'low', u'medium', u'high']","red",50,"middle","medium","True","False",71,900,NA
"A2CWJRAEFZ44HU","Tue Sep 29 2020 16:11:59 GMT-0700 (Pacific Daylight Time)","Tue Sep 29 2020 16:20:45 GMT-0700 (Pacific Daylight Time)","Mozilla/5.0 (Windows NT 10.0; Win64; x64) AppleWebKit/537.36 (KHTML, like Gecko) Chrome/85.0.4183.121 Safari/537.36",13,"[0.9, 0.5, 0.1]","[0.8, 0.4, 0.2]","[u'blue', u'red', u'black']","[u'left', u'middle', u'right']","[0.9, 0.5, 0.1]","[u'low', u'medium', u'high']","red",50,"middle","medium","True","False",63,1000,NA
"A2CWJRAEFZ44HU","Tue Sep 29 2020 16:11:59 GMT-0700 (Pacific Daylight Time)","Tue Sep 29 2020 16:20:45 GMT-0700 (Pacific Daylight Time)","Mozilla/5.0 (Windows NT 10.0; Win64; x64) AppleWebKit/537.36 (KHTML, like Gecko) Chrome/85.0.4183.121 Safari/537.36",14,"[0.9, 0.5, 0.1]","[0.8, 0.4, 0.2]","[u'blue', u'red', u'black']","[u'left', u'middle', u'right']","[0.9, 0.5, 0.1]","[u'low', u'medium', u'high']","red",50,"middle","medium","False","False",81,950,NA
"A2CWJRAEFZ44HU","Tue Sep 29 2020 16:11:59 GMT-0700 (Pacific Daylight Time)","Tue Sep 29 2020 16:20:45 GMT-0700 (Pacific Daylight Time)","Mozilla/5.0 (Windows NT 10.0; Win64; x64) AppleWebKit/537.36 (KHTML, like Gecko) Chrome/85.0.4183.121 Safari/537.36",15,"[0.9, 0.5, 0.1]","[0.8, 0.4, 0.2]","[u'blue', u'red', u'black']","[u'left', u'middle', u'right']","[0.9, 0.5, 0.1]","[u'low', u'medium', u'high']","red",50,"middle","medium","False","False",315,900,NA
"A2CWJRAEFZ44HU","Tue Sep 29 2020 16:11:59 GMT-0700 (Pacific Daylight Time)","Tue Sep 29 2020 16:20:45 GMT-0700 (Pacific Daylight Time)","Mozilla/5.0 (Windows NT 10.0; Win64; x64) AppleWebKit/537.36 (KHTML, like Gecko) Chrome/85.0.4183.121 Safari/537.36",16,"[0.9, 0.5, 0.1]","[0.8, 0.4, 0.2]","[u'blue', u'red', u'black']","[u'left', u'middle', u'right']","[0.9, 0.5, 0.1]","[u'low', u'medium', u'high']","black",51,"right","high","True","False",254,1000,NA
"A2CWJRAEFZ44HU","Tue Sep 29 2020 16:11:59 GMT-0700 (Pacific Daylight Time)","Tue Sep 29 2020 16:20:45 GMT-0700 (Pacific Daylight Time)","Mozilla/5.0 (Windows NT 10.0; Win64; x64) AppleWebKit/537.36 (KHTML, like Gecko) Chrome/85.0.4183.121 Safari/537.36",17,"[0.9, 0.5, 0.1]","[0.8, 0.4, 0.2]","[u'blue', u'red', u'black']","[u'left', u'middle', u'right']","[0.9, 0.5, 0.1]","[u'low', u'medium', u'high']","black",51,"right","high","True","False",195,1100,NA
"A2CWJRAEFZ44HU","Tue Sep 29 2020 16:11:59 GMT-0700 (Pacific Daylight Time)","Tue Sep 29 2020 16:20:45 GMT-0700 (Pacific Daylight Time)","Mozilla/5.0 (Windows NT 10.0; Win64; x64) AppleWebKit/537.36 (KHTML, like Gecko) Chrome/85.0.4183.121 Safari/537.36",18,"[0.9, 0.5, 0.1]","[0.8, 0.4, 0.2]","[u'blue', u'red', u'black']","[u'left', u'middle', u'right']","[0.9, 0.5, 0.1]","[u'low', u'medium', u'high']","black",51,"right","high","True","False",199,1200,NA
"A2CWJRAEFZ44HU","Tue Sep 29 2020 16:11:59 GMT-0700 (Pacific Daylight Time)","Tue Sep 29 2020 16:20:45 GMT-0700 (Pacific Daylight Time)","Mozilla/5.0 (Windows NT 10.0; Win64; x64) AppleWebKit/537.36 (KHTML, like Gecko) Chrome/85.0.4183.121 Safari/537.36",19,"[0.9, 0.5, 0.1]","[0.8, 0.4, 0.2]","[u'blue', u'red', u'black']","[u'left', u'middle', u'right']","[0.9, 0.5, 0.1]","[u'low', u'medium', u'high']","black",51,"right","high","True","False",242,1300,NA
"A2CWJRAEFZ44HU","Tue Sep 29 2020 16:11:59 GMT-0700 (Pacific Daylight Time)","Tue Sep 29 2020 16:20:45 GMT-0700 (Pacific Daylight Time)","Mozilla/5.0 (Windows NT 10.0; Win64; x64) AppleWebKit/537.36 (KHTML, like Gecko) Chrome/85.0.4183.121 Safari/537.36",20,"[0.9, 0.5, 0.1]","[0.8, 0.4, 0.2]","[u'blue', u'red', u'black']","[u'left', u'middle', u'right']","[0.9, 0.5, 0.1]","[u'low', u'medium', u'high']","black",51,"right","high","True","False",188,1400,NA
"A2CWJRAEFZ44HU","Tue Sep 29 2020 16:11:59 GMT-0700 (Pacific Daylight Time)","Tue Sep 29 2020 16:20:45 GMT-0700 (Pacific Daylight Time)","Mozilla/5.0 (Windows NT 10.0; Win64; x64) AppleWebKit/537.36 (KHTML, like Gecko) Chrome/85.0.4183.121 Safari/537.36",21,"[0.9, 0.5, 0.1]","[0.8, 0.4, 0.2]","[u'blue', u'red', u'black']","[u'left', u'middle', u'right']","[0.9, 0.5, 0.1]","[u'low', u'medium', u'high']","black",51,"right","high","True","False",345,1500,NA
"A2CWJRAEFZ44HU","Tue Sep 29 2020 16:11:59 GMT-0700 (Pacific Daylight Time)","Tue Sep 29 2020 16:20:45 GMT-0700 (Pacific Daylight Time)","Mozilla/5.0 (Windows NT 10.0; Win64; x64) AppleWebKit/537.36 (KHTML, like Gecko) Chrome/85.0.4183.121 Safari/537.36",22,"[0.9, 0.5, 0.1]","[0.8, 0.4, 0.2]","[u'blue', u'red', u'black']","[u'left', u'middle', u'right']","[0.9, 0.5, 0.1]","[u'low', u'medium', u'high']","black",51,"right","high","True","False",353,1600,NA
"A2CWJRAEFZ44HU","Tue Sep 29 2020 16:11:59 GMT-0700 (Pacific Daylight Time)","Tue Sep 29 2020 16:20:45 GMT-0700 (Pacific Daylight Time)","Mozilla/5.0 (Windows NT 10.0; Win64; x64) AppleWebKit/537.36 (KHTML, like Gecko) Chrome/85.0.4183.121 Safari/537.36",23,"[0.9, 0.5, 0.1]","[0.8, 0.4, 0.2]","[u'blue', u'red', u'black']","[u'left', u'middle', u'right']","[0.9, 0.5, 0.1]","[u'low', u'medium', u'high']","black",51,"right","high","True","False",351,1700,NA
"A2CWJRAEFZ44HU","Tue Sep 29 2020 16:11:59 GMT-0700 (Pacific Daylight Time)","Tue Sep 29 2020 16:20:45 GMT-0700 (Pacific Daylight Time)","Mozilla/5.0 (Windows NT 10.0; Win64; x64) AppleWebKit/537.36 (KHTML, like Gecko) Chrome/85.0.4183.121 Safari/537.36",24,"[0.9, 0.5, 0.1]","[0.8, 0.4, 0.2]","[u'blue', u'red', u'black']","[u'left', u'middle', u'right']","[0.9, 0.5, 0.1]","[u'low', u'medium', u'high']","black",51,"right","high","True","True",234,1800,NA
"A2CWJRAEFZ44HU","Tue Sep 29 2020 16:11:59 GMT-0700 (Pacific Daylight Time)","Tue Sep 29 2020 16:20:45 GMT-0700 (Pacific Daylight Time)","Mozilla/5.0 (Windows NT 10.0; Win64; x64) AppleWebKit/537.36 (KHTML, like Gecko) Chrome/85.0.4183.121 Safari/537.36",25,"[0.9, 0.5, 0.1]","[0.8, 0.4, 0.2]","[u'blue', u'red', u'black']","[u'left', u'middle', u'right']","[0.9, 0.5, 0.1]","[u'low', u'high', u'medium']","black",51,"right","medium","True","False",328,1900,NA
"A2CWJRAEFZ44HU","Tue Sep 29 2020 16:11:59 GMT-0700 (Pacific Daylight Time)","Tue Sep 29 2020 16:20:45 GMT-0700 (Pacific Daylight Time)","Mozilla/5.0 (Windows NT 10.0; Win64; x64) AppleWebKit/537.36 (KHTML, like Gecko) Chrome/85.0.4183.121 Safari/537.36",26,"[0.9, 0.5, 0.1]","[0.8, 0.4, 0.2]","[u'blue', u'red', u'black']","[u'left', u'middle', u'right']","[0.9, 0.5, 0.1]","[u'low', u'high', u'medium']","black",51,"right","medium","False","False",286,1850,NA
"A2CWJRAEFZ44HU","Tue Sep 29 2020 16:11:59 GMT-0700 (Pacific Daylight Time)","Tue Sep 29 2020 16:20:45 GMT-0700 (Pacific Daylight Time)","Mozilla/5.0 (Windows NT 10.0; Win64; x64) AppleWebKit/537.36 (KHTML, like Gecko) Chrome/85.0.4183.121 Safari/537.36",27,"[0.9, 0.5, 0.1]","[0.8, 0.4, 0.2]","[u'blue', u'red', u'black']","[u'left', u'middle', u'right']","[0.9, 0.5, 0.1]","[u'low', u'high', u'medium']","black",51,"right","medium","False","False",475,1800,NA
"A2CWJRAEFZ44HU","Tue Sep 29 2020 16:11:59 GMT-0700 (Pacific Daylight Time)","Tue Sep 29 2020 16:20:45 GMT-0700 (Pacific Daylight Time)","Mozilla/5.0 (Windows NT 10.0; Win64; x64) AppleWebKit/537.36 (KHTML, like Gecko) Chrome/85.0.4183.121 Safari/537.36",28,"[0.9, 0.5, 0.1]","[0.8, 0.4, 0.2]","[u'blue', u'red', u'black']","[u'left', u'middle', u'right']","[0.9, 0.5, 0.1]","[u'low', u'high', u'medium']","red",50,"middle","high","True","False",167,1900,NA
"A2CWJRAEFZ44HU","Tue Sep 29 2020 16:11:59 GMT-0700 (Pacific Daylight Time)","Tue Sep 29 2020 16:20:45 GMT-0700 (Pacific Daylight Time)","Mozilla/5.0 (Windows NT 10.0; Win64; x64) AppleWebKit/537.36 (KHTML, like Gecko) Chrome/85.0.4183.121 Safari/537.36",29,"[0.9, 0.5, 0.1]","[0.8, 0.4, 0.2]","[u'blue', u'red', u'black']","[u'left', u'middle', u'right']","[0.9, 0.5, 0.1]","[u'low', u'high', u'medium']","red",50,"middle","high","True","False",197,2000,NA
"A2CWJRAEFZ44HU","Tue Sep 29 2020 16:11:59 GMT-0700 (Pacific Daylight Time)","Tue Sep 29 2020 16:20:45 GMT-0700 (Pacific Daylight Time)","Mozilla/5.0 (Windows NT 10.0; Win64; x64) AppleWebKit/537.36 (KHTML, like Gecko) Chrome/85.0.4183.121 Safari/537.36",30,"[0.9, 0.5, 0.1]","[0.8, 0.4, 0.2]","[u'blue', u'red', u'black']","[u'left', u'middle', u'right']","[0.9, 0.5, 0.1]","[u'low', u'high', u'medium']","red",50,"middle","high","True","False",115,2100,NA
"A2CWJRAEFZ44HU","Tue Sep 29 2020 16:11:59 GMT-0700 (Pacific Daylight Time)","Tue Sep 29 2020 16:20:45 GMT-0700 (Pacific Daylight Time)","Mozilla/5.0 (Windows NT 10.0; Win64; x64) AppleWebKit/537.36 (KHTML, like Gecko) Chrome/85.0.4183.121 Safari/537.36",31,"[0.9, 0.5, 0.1]","[0.8, 0.4, 0.2]","[u'blue', u'red', u'black']","[u'left', u'middle', u'right']","[0.9, 0.5, 0.1]","[u'low', u'high', u'medium']","red",50,"middle","high","True","False",140,2200,NA
"A2CWJRAEFZ44HU","Tue Sep 29 2020 16:11:59 GMT-0700 (Pacific Daylight Time)","Tue Sep 29 2020 16:20:45 GMT-0700 (Pacific Daylight Time)","Mozilla/5.0 (Windows NT 10.0; Win64; x64) AppleWebKit/537.36 (KHTML, like Gecko) Chrome/85.0.4183.121 Safari/537.36",32,"[0.9, 0.5, 0.1]","[0.8, 0.4, 0.2]","[u'blue', u'red', u'black']","[u'left', u'middle', u'right']","[0.9, 0.5, 0.1]","[u'low', u'high', u'medium']","red",50,"middle","high","True","False",32,2300,NA
"A2CWJRAEFZ44HU","Tue Sep 29 2020 16:11:59 GMT-0700 (Pacific Daylight Time)","Tue Sep 29 2020 16:20:45 GMT-0700 (Pacific Daylight Time)","Mozilla/5.0 (Windows NT 10.0; Win64; x64) AppleWebKit/537.36 (KHTML, like Gecko) Chrome/85.0.4183.121 Safari/537.36",33,"[0.9, 0.5, 0.1]","[0.8, 0.4, 0.2]","[u'blue', u'red', u'black']","[u'left', u'middle', u'right']","[0.9, 0.5, 0.1]","[u'low', u'high', u'medium']","red",50,"middle","high","True","False",81,2400,NA
"A2CWJRAEFZ44HU","Tue Sep 29 2020 16:11:59 GMT-0700 (Pacific Daylight Time)","Tue Sep 29 2020 16:20:45 GMT-0700 (Pacific Daylight Time)","Mozilla/5.0 (Windows NT 10.0; Win64; x64) AppleWebKit/537.36 (KHTML, like Gecko) Chrome/85.0.4183.121 Safari/537.36",34,"[0.9, 0.5, 0.1]","[0.8, 0.4, 0.2]","[u'blue', u'red', u'black']","[u'left', u'middle', u'right']","[0.9, 0.5, 0.1]","[u'low', u'high', u'medium']","red",50,"middle","high","True","False",54,2500,NA
"A2CWJRAEFZ44HU","Tue Sep 29 2020 16:11:59 GMT-0700 (Pacific Daylight Time)","Tue Sep 29 2020 16:20:45 GMT-0700 (Pacific Daylight Time)","Mozilla/5.0 (Windows NT 10.0; Win64; x64) AppleWebKit/537.36 (KHTML, like Gecko) Chrome/85.0.4183.121 Safari/537.36",35,"[0.9, 0.5, 0.1]","[0.8, 0.4, 0.2]","[u'blue', u'red', u'black']","[u'left', u'middle', u'right']","[0.9, 0.5, 0.1]","[u'low', u'high', u'medium']","red",50,"middle","high","True","False",81,2600,NA
"A2CWJRAEFZ44HU","Tue Sep 29 2020 16:11:59 GMT-0700 (Pacific Daylight Time)","Tue Sep 29 2020 16:20:45 GMT-0700 (Pacific Daylight Time)","Mozilla/5.0 (Windows NT 10.0; Win64; x64) AppleWebKit/537.36 (KHTML, like Gecko) Chrome/85.0.4183.121 Safari/537.36",36,"[0.9, 0.5, 0.1]","[0.8, 0.4, 0.2]","[u'blue', u'red', u'black']","[u'left', u'middle', u'right']","[0.9, 0.5, 0.1]","[u'low', u'high', u'medium']","red",50,"middle","high","True","True",297,2700,NA
"A2CWJRAEFZ44HU","Tue Sep 29 2020 16:11:59 GMT-0700 (Pacific Daylight Time)","Tue Sep 29 2020 16:20:45 GMT-0700 (Pacific Daylight Time)","Mozilla/5.0 (Windows NT 10.0; Win64; x64) AppleWebKit/537.36 (KHTML, like Gecko) Chrome/85.0.4183.121 Safari/537.36",37,"[0.9, 0.5, 0.1]","[0.8, 0.4, 0.2]","[u'blue', u'red', u'black']","[u'left', u'middle', u'right']","[0.9, 0.5, 0.1]","[u'low', u'medium', u'high']","red",50,"middle","medium","False","False",399,2650,NA
"A2CWJRAEFZ44HU","Tue Sep 29 2020 16:11:59 GMT-0700 (Pacific Daylight Time)","Tue Sep 29 2020 16:20:45 GMT-0700 (Pacific Daylight Time)","Mozilla/5.0 (Windows NT 10.0; Win64; x64) AppleWebKit/537.36 (KHTML, like Gecko) Chrome/85.0.4183.121 Safari/537.36",38,"[0.9, 0.5, 0.1]","[0.8, 0.4, 0.2]","[u'blue', u'red', u'black']","[u'left', u'middle', u'right']","[0.9, 0.5, 0.1]","[u'low', u'medium', u'high']","red",50,"middle","medium","False","False",394,2600,NA
"A2CWJRAEFZ44HU","Tue Sep 29 2020 16:11:59 GMT-0700 (Pacific Daylight Time)","Tue Sep 29 2020 16:20:45 GMT-0700 (Pacific Daylight Time)","Mozilla/5.0 (Windows NT 10.0; Win64; x64) AppleWebKit/537.36 (KHTML, like Gecko) Chrome/85.0.4183.121 Safari/537.36",39,"[0.9, 0.5, 0.1]","[0.8, 0.4, 0.2]","[u'blue', u'red', u'black']","[u'left', u'middle', u'right']","[0.9, 0.5, 0.1]","[u'low', u'medium', u'high']","blue",49,"left","low","False","False",366,2550,NA
"A2CWJRAEFZ44HU","Tue Sep 29 2020 16:11:59 GMT-0700 (Pacific Daylight Time)","Tue Sep 29 2020 16:20:45 GMT-0700 (Pacific Daylight Time)","Mozilla/5.0 (Windows NT 10.0; Win64; x64) AppleWebKit/537.36 (KHTML, like Gecko) Chrome/85.0.4183.121 Safari/537.36",40,"[0.9, 0.5, 0.1]","[0.8, 0.4, 0.2]","[u'blue', u'red', u'black']","[u'left', u'middle', u'right']","[0.9, 0.5, 0.1]","[u'low', u'medium', u'high']","black",51,"right","high","False","False",367,2500,NA
"A2CWJRAEFZ44HU","Tue Sep 29 2020 16:11:59 GMT-0700 (Pacific Daylight Time)","Tue Sep 29 2020 16:20:45 GMT-0700 (Pacific Daylight Time)","Mozilla/5.0 (Windows NT 10.0; Win64; x64) AppleWebKit/537.36 (KHTML, like Gecko) Chrome/85.0.4183.121 Safari/537.36",41,"[0.9, 0.5, 0.1]","[0.8, 0.4, 0.2]","[u'blue', u'red', u'black']","[u'left', u'middle', u'right']","[0.9, 0.5, 0.1]","[u'high', u'low', u'medium']","red",50,"middle","low","False","False",523,2450,NA
"A2CWJRAEFZ44HU","Tue Sep 29 2020 16:11:59 GMT-0700 (Pacific Daylight Time)","Tue Sep 29 2020 16:20:45 GMT-0700 (Pacific Daylight Time)","Mozilla/5.0 (Windows NT 10.0; Win64; x64) AppleWebKit/537.36 (KHTML, like Gecko) Chrome/85.0.4183.121 Safari/537.36",42,"[0.9, 0.5, 0.1]","[0.8, 0.4, 0.2]","[u'blue', u'red', u'black']","[u'left', u'middle', u'right']","[0.9, 0.5, 0.1]","[u'high', u'low', u'medium']","black",51,"right","medium","True","False",291,2550,NA
"A2CWJRAEFZ44HU","Tue Sep 29 2020 16:11:59 GMT-0700 (Pacific Daylight Time)","Tue Sep 29 2020 16:20:45 GMT-0700 (Pacific Daylight Time)","Mozilla/5.0 (Windows NT 10.0; Win64; x64) AppleWebKit/537.36 (KHTML, like Gecko) Chrome/85.0.4183.121 Safari/537.36",43,"[0.9, 0.5, 0.1]","[0.8, 0.4, 0.2]","[u'blue', u'red', u'black']","[u'left', u'middle', u'right']","[0.9, 0.5, 0.1]","[u'high', u'low', u'medium']","black",51,"right","medium","False","False",234,2500,NA
"A2CWJRAEFZ44HU","Tue Sep 29 2020 16:11:59 GMT-0700 (Pacific Daylight Time)","Tue Sep 29 2020 16:20:45 GMT-0700 (Pacific Daylight Time)","Mozilla/5.0 (Windows NT 10.0; Win64; x64) AppleWebKit/537.36 (KHTML, like Gecko) Chrome/85.0.4183.121 Safari/537.36",44,"[0.9, 0.5, 0.1]","[0.8, 0.4, 0.2]","[u'blue', u'red', u'black']","[u'left', u'middle', u'right']","[0.9, 0.5, 0.1]","[u'high', u'low', u'medium']","black",51,"right","medium","False","False",166,2450,NA
"A2CWJRAEFZ44HU","Tue Sep 29 2020 16:11:59 GMT-0700 (Pacific Daylight Time)","Tue Sep 29 2020 16:20:45 GMT-0700 (Pacific Daylight Time)","Mozilla/5.0 (Windows NT 10.0; Win64; x64) AppleWebKit/537.36 (KHTML, like Gecko) Chrome/85.0.4183.121 Safari/537.36",45,"[0.9, 0.5, 0.1]","[0.8, 0.4, 0.2]","[u'blue', u'red', u'black']","[u'left', u'middle', u'right']","[0.9, 0.5, 0.1]","[u'high', u'low', u'medium']","red",50,"middle","low","False","False",78,2400,NA
"A2CWJRAEFZ44HU","Tue Sep 29 2020 16:11:59 GMT-0700 (Pacific Daylight Time)","Tue Sep 29 2020 16:20:45 GMT-0700 (Pacific Daylight Time)","Mozilla/5.0 (Windows NT 10.0; Win64; x64) AppleWebKit/537.36 (KHTML, like Gecko) Chrome/85.0.4183.121 Safari/537.36",46,"[0.9, 0.5, 0.1]","[0.8, 0.4, 0.2]","[u'blue', u'red', u'black']","[u'left', u'middle', u'right']","[0.9, 0.5, 0.1]","[u'high', u'low', u'medium']","red",50,"middle","low","False","False",484,2350,NA
"A2CWJRAEFZ44HU","Tue Sep 29 2020 16:11:59 GMT-0700 (Pacific Daylight Time)","Tue Sep 29 2020 16:20:45 GMT-0700 (Pacific Daylight Time)","Mozilla/5.0 (Windows NT 10.0; Win64; x64) AppleWebKit/537.36 (KHTML, like Gecko) Chrome/85.0.4183.121 Safari/537.36",47,"[0.9, 0.5, 0.1]","[0.8, 0.4, 0.2]","[u'blue', u'red', u'black']","[u'left', u'middle', u'right']","[0.9, 0.5, 0.1]","[u'high', u'low', u'medium']","red",50,"middle","low","False","False",454,2300,NA
"A2CWJRAEFZ44HU","Tue Sep 29 2020 16:11:59 GMT-0700 (Pacific Daylight Time)","Tue Sep 29 2020 16:20:45 GMT-0700 (Pacific Daylight Time)","Mozilla/5.0 (Windows NT 10.0; Win64; x64) AppleWebKit/537.36 (KHTML, like Gecko) Chrome/85.0.4183.121 Safari/537.36",48,"[0.9, 0.5, 0.1]","[0.8, 0.4, 0.2]","[u'blue', u'red', u'black']","[u'left', u'middle', u'right']","[0.9, 0.5, 0.1]","[u'high', u'low', u'medium']","black",51,"right","medium","False","False",65,2250,NA
"A2CWJRAEFZ44HU","Tue Sep 29 2020 16:11:59 GMT-0700 (Pacific Daylight Time)","Tue Sep 29 2020 16:20:45 GMT-0700 (Pacific Daylight Time)","Mozilla/5.0 (Windows NT 10.0; Win64; x64) AppleWebKit/537.36 (KHTML, like Gecko) Chrome/85.0.4183.121 Safari/537.36",49,"[0.9, 0.5, 0.1]","[0.8, 0.4, 0.2]","[u'blue', u'red', u'black']","[u'left', u'middle', u'right']","[0.9, 0.5, 0.1]","[u'high', u'low', u'medium']","blue",49,"left","high","False","False",307,2200,NA
"A2CWJRAEFZ44HU","Tue Sep 29 2020 16:11:59 GMT-0700 (Pacific Daylight Time)","Tue Sep 29 2020 16:20:45 GMT-0700 (Pacific Daylight Time)","Mozilla/5.0 (Windows NT 10.0; Win64; x64) AppleWebKit/537.36 (KHTML, like Gecko) Chrome/85.0.4183.121 Safari/537.36",50,"[0.9, 0.5, 0.1]","[0.8, 0.4, 0.2]","[u'blue', u'red', u'black']","[u'left', u'middle', u'right']","[0.9, 0.5, 0.1]","[u'high', u'low', u'medium']","red",50,"middle","low","False","False",560,2150,NA
"A2CWJRAEFZ44HU","Tue Sep 29 2020 16:11:59 GMT-0700 (Pacific Daylight Time)","Tue Sep 29 2020 16:20:45 GMT-0700 (Pacific Daylight Time)","Mozilla/5.0 (Windows NT 10.0; Win64; x64) AppleWebKit/537.36 (KHTML, like Gecko) Chrome/85.0.4183.121 Safari/537.36",51,"[0.9, 0.5, 0.1]","[0.8, 0.4, 0.2]","[u'blue', u'red', u'black']","[u'left', u'middle', u'right']","[0.9, 0.5, 0.1]","[u'high', u'low', u'medium']","red",50,"middle","low","False","False",323,2100,NA
"A2CWJRAEFZ44HU","Tue Sep 29 2020 16:11:59 GMT-0700 (Pacific Daylight Time)","Tue Sep 29 2020 16:20:45 GMT-0700 (Pacific Daylight Time)","Mozilla/5.0 (Windows NT 10.0; Win64; x64) AppleWebKit/537.36 (KHTML, like Gecko) Chrome/85.0.4183.121 Safari/537.36",52,"[0.9, 0.5, 0.1]","[0.8, 0.4, 0.2]","[u'blue', u'red', u'black']","[u'left', u'middle', u'right']","[0.9, 0.5, 0.1]","[u'high', u'low', u'medium']","black",51,"right","medium","True","False",70,2200,NA
"A2CWJRAEFZ44HU","Tue Sep 29 2020 16:11:59 GMT-0700 (Pacific Daylight Time)","Tue Sep 29 2020 16:20:45 GMT-0700 (Pacific Daylight Time)","Mozilla/5.0 (Windows NT 10.0; Win64; x64) AppleWebKit/537.36 (KHTML, like Gecko) Chrome/85.0.4183.121 Safari/537.36",53,"[0.9, 0.5, 0.1]","[0.8, 0.4, 0.2]","[u'blue', u'red', u'black']","[u'left', u'middle', u'right']","[0.9, 0.5, 0.1]","[u'high', u'low', u'medium']","black",51,"right","medium","True","False",43,2300,NA
"A2CWJRAEFZ44HU","Tue Sep 29 2020 16:11:59 GMT-0700 (Pacific Daylight Time)","Tue Sep 29 2020 16:20:45 GMT-0700 (Pacific Daylight Time)","Mozilla/5.0 (Windows NT 10.0; Win64; x64) AppleWebKit/537.36 (KHTML, like Gecko) Chrome/85.0.4183.121 Safari/537.36",54,"[0.9, 0.5, 0.1]","[0.8, 0.4, 0.2]","[u'blue', u'red', u'black']","[u'left', u'middle', u'right']","[0.9, 0.5, 0.1]","[u'high', u'low', u'medium']","black",51,"right","medium","True","False",110,2400,NA
"A2CWJRAEFZ44HU","Tue Sep 29 2020 16:11:59 GMT-0700 (Pacific Daylight Time)","Tue Sep 29 2020 16:20:45 GMT-0700 (Pacific Daylight Time)","Mozilla/5.0 (Windows NT 10.0; Win64; x64) AppleWebKit/537.36 (KHTML, like Gecko) Chrome/85.0.4183.121 Safari/537.36",55,"[0.9, 0.5, 0.1]","[0.8, 0.4, 0.2]","[u'blue', u'red', u'black']","[u'left', u'middle', u'right']","[0.9, 0.5, 0.1]","[u'high', u'low', u'medium']","black",51,"right","medium","True","False",164,2500,NA
"A2CWJRAEFZ44HU","Tue Sep 29 2020 16:11:59 GMT-0700 (Pacific Daylight Time)","Tue Sep 29 2020 16:20:45 GMT-0700 (Pacific Daylight Time)","Mozilla/5.0 (Windows NT 10.0; Win64; x64) AppleWebKit/537.36 (KHTML, like Gecko) Chrome/85.0.4183.121 Safari/537.36",56,"[0.9, 0.5, 0.1]","[0.8, 0.4, 0.2]","[u'blue', u'red', u'black']","[u'left', u'middle', u'right']","[0.9, 0.5, 0.1]","[u'high', u'low', u'medium']","black",51,"right","medium","False","False",78,2450,NA
"A2CWJRAEFZ44HU","Tue Sep 29 2020 16:11:59 GMT-0700 (Pacific Daylight Time)","Tue Sep 29 2020 16:20:45 GMT-0700 (Pacific Daylight Time)","Mozilla/5.0 (Windows NT 10.0; Win64; x64) AppleWebKit/537.36 (KHTML, like Gecko) Chrome/85.0.4183.121 Safari/537.36",57,"[0.9, 0.5, 0.1]","[0.8, 0.4, 0.2]","[u'blue', u'red', u'black']","[u'left', u'middle', u'right']","[0.9, 0.5, 0.1]","[u'high', u'low', u'medium']","black",51,"right","medium","True","False",281,2550,NA
"A2CWJRAEFZ44HU","Tue Sep 29 2020 16:11:59 GMT-0700 (Pacific Daylight Time)","Tue Sep 29 2020 16:20:45 GMT-0700 (Pacific Daylight Time)","Mozilla/5.0 (Windows NT 10.0; Win64; x64) AppleWebKit/537.36 (KHTML, like Gecko) Chrome/85.0.4183.121 Safari/537.36",58,"[0.9, 0.5, 0.1]","[0.8, 0.4, 0.2]","[u'blue', u'red', u'black']","[u'left', u'middle', u'right']","[0.9, 0.5, 0.1]","[u'high', u'low', u'medium']","black",51,"right","medium","False","False",220,2500,NA
"A2CWJRAEFZ44HU","Tue Sep 29 2020 16:11:59 GMT-0700 (Pacific Daylight Time)","Tue Sep 29 2020 16:20:45 GMT-0700 (Pacific Daylight Time)","Mozilla/5.0 (Windows NT 10.0; Win64; x64) AppleWebKit/537.36 (KHTML, like Gecko) Chrome/85.0.4183.121 Safari/537.36",59,"[0.9, 0.5, 0.1]","[0.8, 0.4, 0.2]","[u'blue', u'red', u'black']","[u'left', u'middle', u'right']","[0.9, 0.5, 0.1]","[u'high', u'low', u'medium']","black",51,"right","medium","True","False",177,2600,NA
"A2CWJRAEFZ44HU","Tue Sep 29 2020 16:11:59 GMT-0700 (Pacific Daylight Time)","Tue Sep 29 2020 16:20:45 GMT-0700 (Pacific Daylight Time)","Mozilla/5.0 (Windows NT 10.0; Win64; x64) AppleWebKit/537.36 (KHTML, like Gecko) Chrome/85.0.4183.121 Safari/537.36",60,"[0.9, 0.5, 0.1]","[0.8, 0.4, 0.2]","[u'blue', u'red', u'black']","[u'left', u'middle', u'right']","[0.9, 0.5, 0.1]","[u'high', u'low', u'medium']","black",51,"right","medium","False","False",354,2550,NA
"A2CWJRAEFZ44HU","Tue Sep 29 2020 16:11:59 GMT-0700 (Pacific Daylight Time)","Tue Sep 29 2020 16:20:45 GMT-0700 (Pacific Daylight Time)","Mozilla/5.0 (Windows NT 10.0; Win64; x64) AppleWebKit/537.36 (KHTML, like Gecko) Chrome/85.0.4183.121 Safari/537.36",61,"[0.9, 0.5, 0.1]","[0.8, 0.4, 0.2]","[u'blue', u'red', u'black']","[u'left', u'middle', u'right']","[0.9, 0.5, 0.1]","[u'high', u'low', u'medium']","black",51,"right","medium","False","False",185,2500,NA
"A2CWJRAEFZ44HU","Tue Sep 29 2020 16:11:59 GMT-0700 (Pacific Daylight Time)","Tue Sep 29 2020 16:20:45 GMT-0700 (Pacific Daylight Time)","Mozilla/5.0 (Windows NT 10.0; Win64; x64) AppleWebKit/537.36 (KHTML, like Gecko) Chrome/85.0.4183.121 Safari/537.36",62,"[0.9, 0.5, 0.1]","[0.8, 0.4, 0.2]","[u'blue', u'red', u'black']","[u'left', u'middle', u'right']","[0.9, 0.5, 0.1]","[u'high', u'low', u'medium']","red",50,"middle","low","False","False",133,2450,NA
"A2CWJRAEFZ44HU","Tue Sep 29 2020 16:11:59 GMT-0700 (Pacific Daylight Time)","Tue Sep 29 2020 16:20:45 GMT-0700 (Pacific Daylight Time)","Mozilla/5.0 (Windows NT 10.0; Win64; x64) AppleWebKit/537.36 (KHTML, like Gecko) Chrome/85.0.4183.121 Safari/537.36",63,"[0.9, 0.5, 0.1]","[0.8, 0.4, 0.2]","[u'blue', u'red', u'black']","[u'left', u'middle', u'right']","[0.9, 0.5, 0.1]","[u'high', u'low', u'medium']","blue",49,"left","high","True","False",337,2550,NA
"A2CWJRAEFZ44HU","Tue Sep 29 2020 16:11:59 GMT-0700 (Pacific Daylight Time)","Tue Sep 29 2020 16:20:45 GMT-0700 (Pacific Daylight Time)","Mozilla/5.0 (Windows NT 10.0; Win64; x64) AppleWebKit/537.36 (KHTML, like Gecko) Chrome/85.0.4183.121 Safari/537.36",64,"[0.9, 0.5, 0.1]","[0.8, 0.4, 0.2]","[u'blue', u'red', u'black']","[u'left', u'middle', u'right']","[0.9, 0.5, 0.1]","[u'high', u'low', u'medium']","blue",49,"left","high","True","False",300,2650,NA
"A2CWJRAEFZ44HU","Tue Sep 29 2020 16:11:59 GMT-0700 (Pacific Daylight Time)","Tue Sep 29 2020 16:20:45 GMT-0700 (Pacific Daylight Time)","Mozilla/5.0 (Windows NT 10.0; Win64; x64) AppleWebKit/537.36 (KHTML, like Gecko) Chrome/85.0.4183.121 Safari/537.36",65,"[0.9, 0.5, 0.1]","[0.8, 0.4, 0.2]","[u'blue', u'red', u'black']","[u'left', u'middle', u'right']","[0.9, 0.5, 0.1]","[u'high', u'low', u'medium']","blue",49,"left","high","True","False",361,2750,NA
"A2CWJRAEFZ44HU","Tue Sep 29 2020 16:11:59 GMT-0700 (Pacific Daylight Time)","Tue Sep 29 2020 16:20:45 GMT-0700 (Pacific Daylight Time)","Mozilla/5.0 (Windows NT 10.0; Win64; x64) AppleWebKit/537.36 (KHTML, like Gecko) Chrome/85.0.4183.121 Safari/537.36",66,"[0.9, 0.5, 0.1]","[0.8, 0.4, 0.2]","[u'blue', u'red', u'black']","[u'left', u'middle', u'right']","[0.9, 0.5, 0.1]","[u'high', u'low', u'medium']","blue",49,"left","high","True","False",166,2850,NA
"A2CWJRAEFZ44HU","Tue Sep 29 2020 16:11:59 GMT-0700 (Pacific Daylight Time)","Tue Sep 29 2020 16:20:45 GMT-0700 (Pacific Daylight Time)","Mozilla/5.0 (Windows NT 10.0; Win64; x64) AppleWebKit/537.36 (KHTML, like Gecko) Chrome/85.0.4183.121 Safari/537.36",67,"[0.9, 0.5, 0.1]","[0.8, 0.4, 0.2]","[u'blue', u'red', u'black']","[u'left', u'middle', u'right']","[0.9, 0.5, 0.1]","[u'high', u'low', u'medium']","blue",49,"left","high","True","False",229,2950,NA
"A2CWJRAEFZ44HU","Tue Sep 29 2020 16:11:59 GMT-0700 (Pacific Daylight Time)","Tue Sep 29 2020 16:20:45 GMT-0700 (Pacific Daylight Time)","Mozilla/5.0 (Windows NT 10.0; Win64; x64) AppleWebKit/537.36 (KHTML, like Gecko) Chrome/85.0.4183.121 Safari/537.36",68,"[0.9, 0.5, 0.1]","[0.8, 0.4, 0.2]","[u'blue', u'red', u'black']","[u'left', u'middle', u'right']","[0.9, 0.5, 0.1]","[u'high', u'low', u'medium']","blue",49,"left","high","True","False",83,3050,NA
"A2CWJRAEFZ44HU","Tue Sep 29 2020 16:11:59 GMT-0700 (Pacific Daylight Time)","Tue Sep 29 2020 16:20:45 GMT-0700 (Pacific Daylight Time)","Mozilla/5.0 (Windows NT 10.0; Win64; x64) AppleWebKit/537.36 (KHTML, like Gecko) Chrome/85.0.4183.121 Safari/537.36",69,"[0.9, 0.5, 0.1]","[0.8, 0.4, 0.2]","[u'blue', u'red', u'black']","[u'left', u'middle', u'right']","[0.9, 0.5, 0.1]","[u'high', u'low', u'medium']","blue",49,"left","high","True","False",348,3150,NA
"A2CWJRAEFZ44HU","Tue Sep 29 2020 16:11:59 GMT-0700 (Pacific Daylight Time)","Tue Sep 29 2020 16:20:45 GMT-0700 (Pacific Daylight Time)","Mozilla/5.0 (Windows NT 10.0; Win64; x64) AppleWebKit/537.36 (KHTML, like Gecko) Chrome/85.0.4183.121 Safari/537.36",70,"[0.9, 0.5, 0.1]","[0.8, 0.4, 0.2]","[u'blue', u'red', u'black']","[u'left', u'middle', u'right']","[0.9, 0.5, 0.1]","[u'high', u'low', u'medium']","blue",49,"left","high","True","False",273,3250,NA
"A2CWJRAEFZ44HU","Tue Sep 29 2020 16:11:59 GMT-0700 (Pacific Daylight Time)","Tue Sep 29 2020 16:20:45 GMT-0700 (Pacific Daylight Time)","Mozilla/5.0 (Windows NT 10.0; Win64; x64) AppleWebKit/537.36 (KHTML, like Gecko) Chrome/85.0.4183.121 Safari/537.36",71,"[0.9, 0.5, 0.1]","[0.8, 0.4, 0.2]","[u'blue', u'red', u'black']","[u'left', u'middle', u'right']","[0.9, 0.5, 0.1]","[u'high', u'low', u'medium']","blue",49,"left","high","True","True",344,3350,NA
"A2CWJRAEFZ44HU","Tue Sep 29 2020 16:11:59 GMT-0700 (Pacific Daylight Time)","Tue Sep 29 2020 16:20:45 GMT-0700 (Pacific Daylight Time)","Mozilla/5.0 (Windows NT 10.0; Win64; x64) AppleWebKit/537.36 (KHTML, like Gecko) Chrome/85.0.4183.121 Safari/537.36",72,"[0.9, 0.5, 0.1]","[0.8, 0.4, 0.2]","[u'blue', u'red', u'black']","[u'left', u'middle', u'right']","[0.9, 0.5, 0.1]","[u'low', u'medium', u'high']","blue",49,"left","low","False","False",183,3300,NA
"A2CWJRAEFZ44HU","Tue Sep 29 2020 16:11:59 GMT-0700 (Pacific Daylight Time)","Tue Sep 29 2020 16:20:45 GMT-0700 (Pacific Daylight Time)","Mozilla/5.0 (Windows NT 10.0; Win64; x64) AppleWebKit/537.36 (KHTML, like Gecko) Chrome/85.0.4183.121 Safari/537.36",73,"[0.9, 0.5, 0.1]","[0.8, 0.4, 0.2]","[u'blue', u'red', u'black']","[u'left', u'middle', u'right']","[0.9, 0.5, 0.1]","[u'low', u'medium', u'high']","red",50,"middle","medium","False","False",136,3250,NA
"A2CWJRAEFZ44HU","Tue Sep 29 2020 16:11:59 GMT-0700 (Pacific Daylight Time)","Tue Sep 29 2020 16:20:45 GMT-0700 (Pacific Daylight Time)","Mozilla/5.0 (Windows NT 10.0; Win64; x64) AppleWebKit/537.36 (KHTML, like Gecko) Chrome/85.0.4183.121 Safari/537.36",74,"[0.9, 0.5, 0.1]","[0.8, 0.4, 0.2]","[u'blue', u'red', u'black']","[u'left', u'middle', u'right']","[0.9, 0.5, 0.1]","[u'low', u'medium', u'high']","black",51,"right","high","True","False",19,3350,NA
"A2CWJRAEFZ44HU","Tue Sep 29 2020 16:11:59 GMT-0700 (Pacific Daylight Time)","Tue Sep 29 2020 16:20:45 GMT-0700 (Pacific Daylight Time)","Mozilla/5.0 (Windows NT 10.0; Win64; x64) AppleWebKit/537.36 (KHTML, like Gecko) Chrome/85.0.4183.121 Safari/537.36",75,"[0.9, 0.5, 0.1]","[0.8, 0.4, 0.2]","[u'blue', u'red', u'black']","[u'left', u'middle', u'right']","[0.9, 0.5, 0.1]","[u'low', u'medium', u'high']","black",51,"right","high","True","False",397,3450,NA
"A2CWJRAEFZ44HU","Tue Sep 29 2020 16:11:59 GMT-0700 (Pacific Daylight Time)","Tue Sep 29 2020 16:20:45 GMT-0700 (Pacific Daylight Time)","Mozilla/5.0 (Windows NT 10.0; Win64; x64) AppleWebKit/537.36 (KHTML, like Gecko) Chrome/85.0.4183.121 Safari/537.36",76,"[0.9, 0.5, 0.1]","[0.8, 0.4, 0.2]","[u'blue', u'red', u'black']","[u'left', u'middle', u'right']","[0.9, 0.5, 0.1]","[u'low', u'medium', u'high']","black",51,"right","high","True","False",312,3550,NA
"A2CWJRAEFZ44HU","Tue Sep 29 2020 16:11:59 GMT-0700 (Pacific Daylight Time)","Tue Sep 29 2020 16:20:45 GMT-0700 (Pacific Daylight Time)","Mozilla/5.0 (Windows NT 10.0; Win64; x64) AppleWebKit/537.36 (KHTML, like Gecko) Chrome/85.0.4183.121 Safari/537.36",77,"[0.9, 0.5, 0.1]","[0.8, 0.4, 0.2]","[u'blue', u'red', u'black']","[u'left', u'middle', u'right']","[0.9, 0.5, 0.1]","[u'low', u'medium', u'high']","black",51,"right","high","True","False",265,3650,NA
"A2CWJRAEFZ44HU","Tue Sep 29 2020 16:11:59 GMT-0700 (Pacific Daylight Time)","Tue Sep 29 2020 16:20:45 GMT-0700 (Pacific Daylight Time)","Mozilla/5.0 (Windows NT 10.0; Win64; x64) AppleWebKit/537.36 (KHTML, like Gecko) Chrome/85.0.4183.121 Safari/537.36",78,"[0.9, 0.5, 0.1]","[0.8, 0.4, 0.2]","[u'blue', u'red', u'black']","[u'left', u'middle', u'right']","[0.9, 0.5, 0.1]","[u'low', u'medium', u'high']","black",51,"right","high","False","False",290,3600,NA
"A2CWJRAEFZ44HU","Tue Sep 29 2020 16:11:59 GMT-0700 (Pacific Daylight Time)","Tue Sep 29 2020 16:20:45 GMT-0700 (Pacific Daylight Time)","Mozilla/5.0 (Windows NT 10.0; Win64; x64) AppleWebKit/537.36 (KHTML, like Gecko) Chrome/85.0.4183.121 Safari/537.36",79,"[0.9, 0.5, 0.1]","[0.8, 0.4, 0.2]","[u'blue', u'red', u'black']","[u'left', u'middle', u'right']","[0.9, 0.5, 0.1]","[u'low', u'medium', u'high']","red",50,"middle","medium","False","False",393,3550,NA
"A2CWJRAEFZ44HU","Tue Sep 29 2020 16:11:59 GMT-0700 (Pacific Daylight Time)","Tue Sep 29 2020 16:20:45 GMT-0700 (Pacific Daylight Time)","Mozilla/5.0 (Windows NT 10.0; Win64; x64) AppleWebKit/537.36 (KHTML, like Gecko) Chrome/85.0.4183.121 Safari/537.36",80,"[0.9, 0.5, 0.1]","[0.8, 0.4, 0.2]","[u'blue', u'red', u'black']","[u'left', u'middle', u'right']","[0.9, 0.5, 0.1]","[u'low', u'medium', u'high']","blue",49,"left","low","False","False",32,3500,NA
"A2CWJRAEFZ44HU","Tue Sep 29 2020 16:11:59 GMT-0700 (Pacific Daylight Time)","Tue Sep 29 2020 16:20:45 GMT-0700 (Pacific Daylight Time)","Mozilla/5.0 (Windows NT 10.0; Win64; x64) AppleWebKit/537.36 (KHTML, like Gecko) Chrome/85.0.4183.121 Safari/537.36",81,"[0.9, 0.5, 0.1]","[0.8, 0.4, 0.2]","[u'blue', u'red', u'black']","[u'left', u'middle', u'right']","[0.8, 0.4, 0.2]","[u'high', u'medium', u'low']","red",50,"middle","medium","True","False",498,3600,NA
"A2CWJRAEFZ44HU","Tue Sep 29 2020 16:11:59 GMT-0700 (Pacific Daylight Time)","Tue Sep 29 2020 16:20:45 GMT-0700 (Pacific Daylight Time)","Mozilla/5.0 (Windows NT 10.0; Win64; x64) AppleWebKit/537.36 (KHTML, like Gecko) Chrome/85.0.4183.121 Safari/537.36",82,"[0.9, 0.5, 0.1]","[0.8, 0.4, 0.2]","[u'blue', u'red', u'black']","[u'left', u'middle', u'right']","[0.8, 0.4, 0.2]","[u'high', u'medium', u'low']","red",50,"middle","medium","False","False",101,3550,NA
"A2CWJRAEFZ44HU","Tue Sep 29 2020 16:11:59 GMT-0700 (Pacific Daylight Time)","Tue Sep 29 2020 16:20:45 GMT-0700 (Pacific Daylight Time)","Mozilla/5.0 (Windows NT 10.0; Win64; x64) AppleWebKit/537.36 (KHTML, like Gecko) Chrome/85.0.4183.121 Safari/537.36",83,"[0.9, 0.5, 0.1]","[0.8, 0.4, 0.2]","[u'blue', u'red', u'black']","[u'left', u'middle', u'right']","[0.8, 0.4, 0.2]","[u'high', u'medium', u'low']","red",50,"middle","medium","True","False",669,3650,NA
"A2CWJRAEFZ44HU","Tue Sep 29 2020 16:11:59 GMT-0700 (Pacific Daylight Time)","Tue Sep 29 2020 16:20:45 GMT-0700 (Pacific Daylight Time)","Mozilla/5.0 (Windows NT 10.0; Win64; x64) AppleWebKit/537.36 (KHTML, like Gecko) Chrome/85.0.4183.121 Safari/537.36",84,"[0.9, 0.5, 0.1]","[0.8, 0.4, 0.2]","[u'blue', u'red', u'black']","[u'left', u'middle', u'right']","[0.8, 0.4, 0.2]","[u'high', u'medium', u'low']","red",50,"middle","medium","False","False",474,3600,NA
"A2CWJRAEFZ44HU","Tue Sep 29 2020 16:11:59 GMT-0700 (Pacific Daylight Time)","Tue Sep 29 2020 16:20:45 GMT-0700 (Pacific Daylight Time)","Mozilla/5.0 (Windows NT 10.0; Win64; x64) AppleWebKit/537.36 (KHTML, like Gecko) Chrome/85.0.4183.121 Safari/537.36",85,"[0.9, 0.5, 0.1]","[0.8, 0.4, 0.2]","[u'blue', u'red', u'black']","[u'left', u'middle', u'right']","[0.8, 0.4, 0.2]","[u'high', u'medium', u'low']","blue",49,"left","high","True","False",437,3700,NA
"A2CWJRAEFZ44HU","Tue Sep 29 2020 16:11:59 GMT-0700 (Pacific Daylight Time)","Tue Sep 29 2020 16:20:45 GMT-0700 (Pacific Daylight Time)","Mozilla/5.0 (Windows NT 10.0; Win64; x64) AppleWebKit/537.36 (KHTML, like Gecko) Chrome/85.0.4183.121 Safari/537.36",86,"[0.9, 0.5, 0.1]","[0.8, 0.4, 0.2]","[u'blue', u'red', u'black']","[u'left', u'middle', u'right']","[0.8, 0.4, 0.2]","[u'high', u'medium', u'low']","blue",49,"left","high","True","False",368,3800,NA
"A2CWJRAEFZ44HU","Tue Sep 29 2020 16:11:59 GMT-0700 (Pacific Daylight Time)","Tue Sep 29 2020 16:20:45 GMT-0700 (Pacific Daylight Time)","Mozilla/5.0 (Windows NT 10.0; Win64; x64) AppleWebKit/537.36 (KHTML, like Gecko) Chrome/85.0.4183.121 Safari/537.36",87,"[0.9, 0.5, 0.1]","[0.8, 0.4, 0.2]","[u'blue', u'red', u'black']","[u'left', u'middle', u'right']","[0.8, 0.4, 0.2]","[u'high', u'medium', u'low']","blue",49,"left","high","True","False",272,3900,NA
"A2CWJRAEFZ44HU","Tue Sep 29 2020 16:11:59 GMT-0700 (Pacific Daylight Time)","Tue Sep 29 2020 16:20:45 GMT-0700 (Pacific Daylight Time)","Mozilla/5.0 (Windows NT 10.0; Win64; x64) AppleWebKit/537.36 (KHTML, like Gecko) Chrome/85.0.4183.121 Safari/537.36",88,"[0.9, 0.5, 0.1]","[0.8, 0.4, 0.2]","[u'blue', u'red', u'black']","[u'left', u'middle', u'right']","[0.8, 0.4, 0.2]","[u'high', u'medium', u'low']","blue",49,"left","high","False","False",304,3850,NA
"A2CWJRAEFZ44HU","Tue Sep 29 2020 16:11:59 GMT-0700 (Pacific Daylight Time)","Tue Sep 29 2020 16:20:45 GMT-0700 (Pacific Daylight Time)","Mozilla/5.0 (Windows NT 10.0; Win64; x64) AppleWebKit/537.36 (KHTML, like Gecko) Chrome/85.0.4183.121 Safari/537.36",89,"[0.9, 0.5, 0.1]","[0.8, 0.4, 0.2]","[u'blue', u'red', u'black']","[u'left', u'middle', u'right']","[0.8, 0.4, 0.2]","[u'high', u'medium', u'low']","black",51,"right","low","False","False",325,3800,NA
"A2CWJRAEFZ44HU","Tue Sep 29 2020 16:11:59 GMT-0700 (Pacific Daylight Time)","Tue Sep 29 2020 16:20:45 GMT-0700 (Pacific Daylight Time)","Mozilla/5.0 (Windows NT 10.0; Win64; x64) AppleWebKit/537.36 (KHTML, like Gecko) Chrome/85.0.4183.121 Safari/537.36",90,"[0.9, 0.5, 0.1]","[0.8, 0.4, 0.2]","[u'blue', u'red', u'black']","[u'left', u'middle', u'right']","[0.8, 0.4, 0.2]","[u'high', u'medium', u'low']","red",50,"middle","medium","False","False",288,3750,NA
"A2CWJRAEFZ44HU","Tue Sep 29 2020 16:11:59 GMT-0700 (Pacific Daylight Time)","Tue Sep 29 2020 16:20:45 GMT-0700 (Pacific Daylight Time)","Mozilla/5.0 (Windows NT 10.0; Win64; x64) AppleWebKit/537.36 (KHTML, like Gecko) Chrome/85.0.4183.121 Safari/537.36",91,"[0.9, 0.5, 0.1]","[0.8, 0.4, 0.2]","[u'blue', u'red', u'black']","[u'left', u'middle', u'right']","[0.8, 0.4, 0.2]","[u'high', u'medium', u'low']","blue",49,"left","high","True","False",45,3850,NA
"A2CWJRAEFZ44HU","Tue Sep 29 2020 16:11:59 GMT-0700 (Pacific Daylight Time)","Tue Sep 29 2020 16:20:45 GMT-0700 (Pacific Daylight Time)","Mozilla/5.0 (Windows NT 10.0; Win64; x64) AppleWebKit/537.36 (KHTML, like Gecko) Chrome/85.0.4183.121 Safari/537.36",92,"[0.9, 0.5, 0.1]","[0.8, 0.4, 0.2]","[u'blue', u'red', u'black']","[u'left', u'middle', u'right']","[0.8, 0.4, 0.2]","[u'high', u'medium', u'low']","blue",49,"left","high","True","False",270,3950,NA
"A2CWJRAEFZ44HU","Tue Sep 29 2020 16:11:59 GMT-0700 (Pacific Daylight Time)","Tue Sep 29 2020 16:20:45 GMT-0700 (Pacific Daylight Time)","Mozilla/5.0 (Windows NT 10.0; Win64; x64) AppleWebKit/537.36 (KHTML, like Gecko) Chrome/85.0.4183.121 Safari/537.36",93,"[0.9, 0.5, 0.1]","[0.8, 0.4, 0.2]","[u'blue', u'red', u'black']","[u'left', u'middle', u'right']","[0.8, 0.4, 0.2]","[u'high', u'medium', u'low']","blue",49,"left","high","True","False",316,4050,NA
"A2CWJRAEFZ44HU","Tue Sep 29 2020 16:11:59 GMT-0700 (Pacific Daylight Time)","Tue Sep 29 2020 16:20:45 GMT-0700 (Pacific Daylight Time)","Mozilla/5.0 (Windows NT 10.0; Win64; x64) AppleWebKit/537.36 (KHTML, like Gecko) Chrome/85.0.4183.121 Safari/537.36",94,"[0.9, 0.5, 0.1]","[0.8, 0.4, 0.2]","[u'blue', u'red', u'black']","[u'left', u'middle', u'right']","[0.8, 0.4, 0.2]","[u'high', u'medium', u'low']","blue",49,"left","high","True","False",169,4150,NA
"A2CWJRAEFZ44HU","Tue Sep 29 2020 16:11:59 GMT-0700 (Pacific Daylight Time)","Tue Sep 29 2020 16:20:45 GMT-0700 (Pacific Daylight Time)","Mozilla/5.0 (Windows NT 10.0; Win64; x64) AppleWebKit/537.36 (KHTML, like Gecko) Chrome/85.0.4183.121 Safari/537.36",95,"[0.9, 0.5, 0.1]","[0.8, 0.4, 0.2]","[u'blue', u'red', u'black']","[u'left', u'middle', u'right']","[0.8, 0.4, 0.2]","[u'high', u'medium', u'low']","blue",49,"left","high","True","False",47,4250,NA
"A2CWJRAEFZ44HU","Tue Sep 29 2020 16:11:59 GMT-0700 (Pacific Daylight Time)","Tue Sep 29 2020 16:20:45 GMT-0700 (Pacific Daylight Time)","Mozilla/5.0 (Windows NT 10.0; Win64; x64) AppleWebKit/537.36 (KHTML, like Gecko) Chrome/85.0.4183.121 Safari/537.36",96,"[0.9, 0.5, 0.1]","[0.8, 0.4, 0.2]","[u'blue', u'red', u'black']","[u'left', u'middle', u'right']","[0.8, 0.4, 0.2]","[u'high', u'medium', u'low']","blue",49,"left","high","True","False",62,4350,NA
"A2CWJRAEFZ44HU","Tue Sep 29 2020 16:11:59 GMT-0700 (Pacific Daylight Time)","Tue Sep 29 2020 16:20:45 GMT-0700 (Pacific Daylight Time)","Mozilla/5.0 (Windows NT 10.0; Win64; x64) AppleWebKit/537.36 (KHTML, like Gecko) Chrome/85.0.4183.121 Safari/537.36",97,"[0.9, 0.5, 0.1]","[0.8, 0.4, 0.2]","[u'blue', u'red', u'black']","[u'left', u'middle', u'right']","[0.8, 0.4, 0.2]","[u'high', u'medium', u'low']","blue",49,"left","high","True","False",173,4450,NA
"A2CWJRAEFZ44HU","Tue Sep 29 2020 16:11:59 GMT-0700 (Pacific Daylight Time)","Tue Sep 29 2020 16:20:45 GMT-0700 (Pacific Daylight Time)","Mozilla/5.0 (Windows NT 10.0; Win64; x64) AppleWebKit/537.36 (KHTML, like Gecko) Chrome/85.0.4183.121 Safari/537.36",98,"[0.9, 0.5, 0.1]","[0.8, 0.4, 0.2]","[u'blue', u'red', u'black']","[u'left', u'middle', u'right']","[0.8, 0.4, 0.2]","[u'high', u'medium', u'low']","blue",49,"left","high","True","False",179,4550,NA
"A2CWJRAEFZ44HU","Tue Sep 29 2020 16:11:59 GMT-0700 (Pacific Daylight Time)","Tue Sep 29 2020 16:20:45 GMT-0700 (Pacific Daylight Time)","Mozilla/5.0 (Windows NT 10.0; Win64; x64) AppleWebKit/537.36 (KHTML, like Gecko) Chrome/85.0.4183.121 Safari/537.36",99,"[0.9, 0.5, 0.1]","[0.8, 0.4, 0.2]","[u'blue', u'red', u'black']","[u'left', u'middle', u'right']","[0.8, 0.4, 0.2]","[u'high', u'medium', u'low']","blue",49,"left","high","True","True",185,4650,NA
"A2CWJRAEFZ44HU","Tue Sep 29 2020 16:11:59 GMT-0700 (Pacific Daylight Time)","Tue Sep 29 2020 16:20:45 GMT-0700 (Pacific Daylight Time)","Mozilla/5.0 (Windows NT 10.0; Win64; x64) AppleWebKit/537.36 (KHTML, like Gecko) Chrome/85.0.4183.121 Safari/537.36",100,"[0.9, 0.5, 0.1]","[0.8, 0.4, 0.2]","[u'blue', u'red', u'black']","[u'left', u'middle', u'right']","[0.8, 0.4, 0.2]","[u'low', u'medium', u'high']","blue",49,"left","low","False","False",320,4600,NA
"A2CWJRAEFZ44HU","Tue Sep 29 2020 16:11:59 GMT-0700 (Pacific Daylight Time)","Tue Sep 29 2020 16:20:45 GMT-0700 (Pacific Daylight Time)","Mozilla/5.0 (Windows NT 10.0; Win64; x64) AppleWebKit/537.36 (KHTML, like Gecko) Chrome/85.0.4183.121 Safari/537.36",101,"[0.9, 0.5, 0.1]","[0.8, 0.4, 0.2]","[u'blue', u'red', u'black']","[u'left', u'middle', u'right']","[0.8, 0.4, 0.2]","[u'low', u'medium', u'high']","blue",49,"left","low","False","False",410,4550,NA
"A2CWJRAEFZ44HU","Tue Sep 29 2020 16:11:59 GMT-0700 (Pacific Daylight Time)","Tue Sep 29 2020 16:20:45 GMT-0700 (Pacific Daylight Time)","Mozilla/5.0 (Windows NT 10.0; Win64; x64) AppleWebKit/537.36 (KHTML, like Gecko) Chrome/85.0.4183.121 Safari/537.36",102,"[0.9, 0.5, 0.1]","[0.8, 0.4, 0.2]","[u'blue', u'red', u'black']","[u'left', u'middle', u'right']","[0.8, 0.4, 0.2]","[u'low', u'medium', u'high']","red",50,"middle","medium","False","False",62,4500,NA
"A2CWJRAEFZ44HU","Tue Sep 29 2020 16:11:59 GMT-0700 (Pacific Daylight Time)","Tue Sep 29 2020 16:20:45 GMT-0700 (Pacific Daylight Time)","Mozilla/5.0 (Windows NT 10.0; Win64; x64) AppleWebKit/537.36 (KHTML, like Gecko) Chrome/85.0.4183.121 Safari/537.36",103,"[0.9, 0.5, 0.1]","[0.8, 0.4, 0.2]","[u'blue', u'red', u'black']","[u'left', u'middle', u'right']","[0.8, 0.4, 0.2]","[u'low', u'medium', u'high']","red",50,"middle","medium","False","False",62,4450,NA
"A2CWJRAEFZ44HU","Tue Sep 29 2020 16:11:59 GMT-0700 (Pacific Daylight Time)","Tue Sep 29 2020 16:20:45 GMT-0700 (Pacific Daylight Time)","Mozilla/5.0 (Windows NT 10.0; Win64; x64) AppleWebKit/537.36 (KHTML, like Gecko) Chrome/85.0.4183.121 Safari/537.36",104,"[0.9, 0.5, 0.1]","[0.8, 0.4, 0.2]","[u'blue', u'red', u'black']","[u'left', u'middle', u'right']","[0.8, 0.4, 0.2]","[u'low', u'medium', u'high']","black",51,"right","high","True","False",197,4550,NA
"A2CWJRAEFZ44HU","Tue Sep 29 2020 16:11:59 GMT-0700 (Pacific Daylight Time)","Tue Sep 29 2020 16:20:45 GMT-0700 (Pacific Daylight Time)","Mozilla/5.0 (Windows NT 10.0; Win64; x64) AppleWebKit/537.36 (KHTML, like Gecko) Chrome/85.0.4183.121 Safari/537.36",105,"[0.9, 0.5, 0.1]","[0.8, 0.4, 0.2]","[u'blue', u'red', u'black']","[u'left', u'middle', u'right']","[0.8, 0.4, 0.2]","[u'low', u'medium', u'high']","black",51,"right","high","True","False",16,4650,NA
"A2CWJRAEFZ44HU","Tue Sep 29 2020 16:11:59 GMT-0700 (Pacific Daylight Time)","Tue Sep 29 2020 16:20:45 GMT-0700 (Pacific Daylight Time)","Mozilla/5.0 (Windows NT 10.0; Win64; x64) AppleWebKit/537.36 (KHTML, like Gecko) Chrome/85.0.4183.121 Safari/537.36",106,"[0.9, 0.5, 0.1]","[0.8, 0.4, 0.2]","[u'blue', u'red', u'black']","[u'left', u'middle', u'right']","[0.8, 0.4, 0.2]","[u'low', u'medium', u'high']","black",51,"right","high","False","False",205,4600,NA
"A2CWJRAEFZ44HU","Tue Sep 29 2020 16:11:59 GMT-0700 (Pacific Daylight Time)","Tue Sep 29 2020 16:20:45 GMT-0700 (Pacific Daylight Time)","Mozilla/5.0 (Windows NT 10.0; Win64; x64) AppleWebKit/537.36 (KHTML, like Gecko) Chrome/85.0.4183.121 Safari/537.36",107,"[0.9, 0.5, 0.1]","[0.8, 0.4, 0.2]","[u'blue', u'red', u'black']","[u'left', u'middle', u'right']","[0.8, 0.4, 0.2]","[u'low', u'medium', u'high']","black",51,"right","high","True","False",236,4700,NA
"A2CWJRAEFZ44HU","Tue Sep 29 2020 16:11:59 GMT-0700 (Pacific Daylight Time)","Tue Sep 29 2020 16:20:45 GMT-0700 (Pacific Daylight Time)","Mozilla/5.0 (Windows NT 10.0; Win64; x64) AppleWebKit/537.36 (KHTML, like Gecko) Chrome/85.0.4183.121 Safari/537.36",108,"[0.9, 0.5, 0.1]","[0.8, 0.4, 0.2]","[u'blue', u'red', u'black']","[u'left', u'middle', u'right']","[0.8, 0.4, 0.2]","[u'low', u'medium', u'high']","black",51,"right","high","True","False",121,4800,NA
"A2CWJRAEFZ44HU","Tue Sep 29 2020 16:11:59 GMT-0700 (Pacific Daylight Time)","Tue Sep 29 2020 16:20:45 GMT-0700 (Pacific Daylight Time)","Mozilla/5.0 (Windows NT 10.0; Win64; x64) AppleWebKit/537.36 (KHTML, like Gecko) Chrome/85.0.4183.121 Safari/537.36",109,"[0.9, 0.5, 0.1]","[0.8, 0.4, 0.2]","[u'blue', u'red', u'black']","[u'left', u'middle', u'right']","[0.8, 0.4, 0.2]","[u'low', u'medium', u'high']","black",51,"right","high","False","False",154,4750,NA
"A2CWJRAEFZ44HU","Tue Sep 29 2020 16:11:59 GMT-0700 (Pacific Daylight Time)","Tue Sep 29 2020 16:20:45 GMT-0700 (Pacific Daylight Time)","Mozilla/5.0 (Windows NT 10.0; Win64; x64) AppleWebKit/537.36 (KHTML, like Gecko) Chrome/85.0.4183.121 Safari/537.36",110,"[0.9, 0.5, 0.1]","[0.8, 0.4, 0.2]","[u'blue', u'red', u'black']","[u'left', u'middle', u'right']","[0.8, 0.4, 0.2]","[u'low', u'medium', u'high']","black",51,"right","high","False","False",140,4700,NA
"A2CWJRAEFZ44HU","Tue Sep 29 2020 16:11:59 GMT-0700 (Pacific Daylight Time)","Tue Sep 29 2020 16:20:45 GMT-0700 (Pacific Daylight Time)","Mozilla/5.0 (Windows NT 10.0; Win64; x64) AppleWebKit/537.36 (KHTML, like Gecko) Chrome/85.0.4183.121 Safari/537.36",111,"[0.9, 0.5, 0.1]","[0.8, 0.4, 0.2]","[u'blue', u'red', u'black']","[u'left', u'middle', u'right']","[0.8, 0.4, 0.2]","[u'low', u'medium', u'high']","red",50,"middle","medium","True","False",296,4800,NA
"A2CWJRAEFZ44HU","Tue Sep 29 2020 16:11:59 GMT-0700 (Pacific Daylight Time)","Tue Sep 29 2020 16:20:45 GMT-0700 (Pacific Daylight Time)","Mozilla/5.0 (Windows NT 10.0; Win64; x64) AppleWebKit/537.36 (KHTML, like Gecko) Chrome/85.0.4183.121 Safari/537.36",112,"[0.9, 0.5, 0.1]","[0.8, 0.4, 0.2]","[u'blue', u'red', u'black']","[u'left', u'middle', u'right']","[0.8, 0.4, 0.2]","[u'low', u'medium', u'high']","red",50,"middle","medium","False","False",211,4750,NA
"A2CWJRAEFZ44HU","Tue Sep 29 2020 16:11:59 GMT-0700 (Pacific Daylight Time)","Tue Sep 29 2020 16:20:45 GMT-0700 (Pacific Daylight Time)","Mozilla/5.0 (Windows NT 10.0; Win64; x64) AppleWebKit/537.36 (KHTML, like Gecko) Chrome/85.0.4183.121 Safari/537.36",113,"[0.9, 0.5, 0.1]","[0.8, 0.4, 0.2]","[u'blue', u'red', u'black']","[u'left', u'middle', u'right']","[0.8, 0.4, 0.2]","[u'low', u'medium', u'high']","red",50,"middle","medium","False","False",196,4700,NA
"A2CWJRAEFZ44HU","Tue Sep 29 2020 16:11:59 GMT-0700 (Pacific Daylight Time)","Tue Sep 29 2020 16:20:45 GMT-0700 (Pacific Daylight Time)","Mozilla/5.0 (Windows NT 10.0; Win64; x64) AppleWebKit/537.36 (KHTML, like Gecko) Chrome/85.0.4183.121 Safari/537.36",114,"[0.9, 0.5, 0.1]","[0.8, 0.4, 0.2]","[u'blue', u'red', u'black']","[u'left', u'middle', u'right']","[0.8, 0.4, 0.2]","[u'low', u'medium', u'high']","blue",49,"left","low","False","False",195,4650,NA
"A2CWJRAEFZ44HU","Tue Sep 29 2020 16:11:59 GMT-0700 (Pacific Daylight Time)","Tue Sep 29 2020 16:20:45 GMT-0700 (Pacific Daylight Time)","Mozilla/5.0 (Windows NT 10.0; Win64; x64) AppleWebKit/537.36 (KHTML, like Gecko) Chrome/85.0.4183.121 Safari/537.36",115,"[0.9, 0.5, 0.1]","[0.8, 0.4, 0.2]","[u'blue', u'red', u'black']","[u'left', u'middle', u'right']","[0.8, 0.4, 0.2]","[u'low', u'medium', u'high']","black",51,"right","high","False","False",450,4600,NA
"A2CWJRAEFZ44HU","Tue Sep 29 2020 16:11:59 GMT-0700 (Pacific Daylight Time)","Tue Sep 29 2020 16:20:45 GMT-0700 (Pacific Daylight Time)","Mozilla/5.0 (Windows NT 10.0; Win64; x64) AppleWebKit/537.36 (KHTML, like Gecko) Chrome/85.0.4183.121 Safari/537.36",116,"[0.9, 0.5, 0.1]","[0.8, 0.4, 0.2]","[u'blue', u'red', u'black']","[u'left', u'middle', u'right']","[0.8, 0.4, 0.2]","[u'low', u'medium', u'high']","red",50,"middle","medium","False","False",5,4550,NA
"A2CWJRAEFZ44HU","Tue Sep 29 2020 16:11:59 GMT-0700 (Pacific Daylight Time)","Tue Sep 29 2020 16:20:45 GMT-0700 (Pacific Daylight Time)","Mozilla/5.0 (Windows NT 10.0; Win64; x64) AppleWebKit/537.36 (KHTML, like Gecko) Chrome/85.0.4183.121 Safari/537.36",117,"[0.9, 0.5, 0.1]","[0.8, 0.4, 0.2]","[u'blue', u'red', u'black']","[u'left', u'middle', u'right']","[0.8, 0.4, 0.2]","[u'low', u'medium', u'high']","blue",49,"left","low","True","False",196,4650,NA
"A2CWJRAEFZ44HU","Tue Sep 29 2020 16:11:59 GMT-0700 (Pacific Daylight Time)","Tue Sep 29 2020 16:20:45 GMT-0700 (Pacific Daylight Time)","Mozilla/5.0 (Windows NT 10.0; Win64; x64) AppleWebKit/537.36 (KHTML, like Gecko) Chrome/85.0.4183.121 Safari/537.36",118,"[0.9, 0.5, 0.1]","[0.8, 0.4, 0.2]","[u'blue', u'red', u'black']","[u'left', u'middle', u'right']","[0.8, 0.4, 0.2]","[u'low', u'medium', u'high']","blue",49,"left","low","False","False",364,4600,NA
"A2CWJRAEFZ44HU","Tue Sep 29 2020 16:11:59 GMT-0700 (Pacific Daylight Time)","Tue Sep 29 2020 16:20:45 GMT-0700 (Pacific Daylight Time)","Mozilla/5.0 (Windows NT 10.0; Win64; x64) AppleWebKit/537.36 (KHTML, like Gecko) Chrome/85.0.4183.121 Safari/537.36",119,"[0.9, 0.5, 0.1]","[0.8, 0.4, 0.2]","[u'blue', u'red', u'black']","[u'left', u'middle', u'right']","[0.8, 0.4, 0.2]","[u'low', u'medium', u'high']","blue",49,"left","low","False","False",176,4550,NA
"A2CWJRAEFZ44HU","Tue Sep 29 2020 16:11:59 GMT-0700 (Pacific Daylight Time)","Tue Sep 29 2020 16:20:45 GMT-0700 (Pacific Daylight Time)","Mozilla/5.0 (Windows NT 10.0; Win64; x64) AppleWebKit/537.36 (KHTML, like Gecko) Chrome/85.0.4183.121 Safari/537.36",120,"[0.9, 0.5, 0.1]","[0.8, 0.4, 0.2]","[u'blue', u'red', u'black']","[u'left', u'middle', u'right']","[0.8, 0.4, 0.2]","[u'low', u'medium', u'high']","red",50,"middle","medium","True","False",176,4650,NA
"A2CWJRAEFZ44HU","Tue Sep 29 2020 16:11:59 GMT-0700 (Pacific Daylight Time)","Tue Sep 29 2020 16:20:45 GMT-0700 (Pacific Daylight Time)","Mozilla/5.0 (Windows NT 10.0; Win64; x64) AppleWebKit/537.36 (KHTML, like Gecko) Chrome/85.0.4183.121 Safari/537.36",121,"[0.9, 0.5, 0.1]","[0.8, 0.4, 0.2]","[u'blue', u'red', u'black']","[u'left', u'middle', u'right']","[0.8, 0.4, 0.2]","[u'high', u'medium', u'low']","red",50,"middle","medium","False","False",495,4600,NA
"A2CWJRAEFZ44HU","Tue Sep 29 2020 16:11:59 GMT-0700 (Pacific Daylight Time)","Tue Sep 29 2020 16:20:45 GMT-0700 (Pacific Daylight Time)","Mozilla/5.0 (Windows NT 10.0; Win64; x64) AppleWebKit/537.36 (KHTML, like Gecko) Chrome/85.0.4183.121 Safari/537.36",122,"[0.9, 0.5, 0.1]","[0.8, 0.4, 0.2]","[u'blue', u'red', u'black']","[u'left', u'middle', u'right']","[0.8, 0.4, 0.2]","[u'high', u'medium', u'low']","blue",49,"left","high","True","False",491,4700,NA
"A2CWJRAEFZ44HU","Tue Sep 29 2020 16:11:59 GMT-0700 (Pacific Daylight Time)","Tue Sep 29 2020 16:20:45 GMT-0700 (Pacific Daylight Time)","Mozilla/5.0 (Windows NT 10.0; Win64; x64) AppleWebKit/537.36 (KHTML, like Gecko) Chrome/85.0.4183.121 Safari/537.36",123,"[0.9, 0.5, 0.1]","[0.8, 0.4, 0.2]","[u'blue', u'red', u'black']","[u'left', u'middle', u'right']","[0.8, 0.4, 0.2]","[u'high', u'medium', u'low']","blue",49,"left","high","True","False",374,4800,NA
"A2CWJRAEFZ44HU","Tue Sep 29 2020 16:11:59 GMT-0700 (Pacific Daylight Time)","Tue Sep 29 2020 16:20:45 GMT-0700 (Pacific Daylight Time)","Mozilla/5.0 (Windows NT 10.0; Win64; x64) AppleWebKit/537.36 (KHTML, like Gecko) Chrome/85.0.4183.121 Safari/537.36",124,"[0.9, 0.5, 0.1]","[0.8, 0.4, 0.2]","[u'blue', u'red', u'black']","[u'left', u'middle', u'right']","[0.8, 0.4, 0.2]","[u'high', u'medium', u'low']","blue",49,"left","high","True","False",347,4900,NA
"A2CWJRAEFZ44HU","Tue Sep 29 2020 16:11:59 GMT-0700 (Pacific Daylight Time)","Tue Sep 29 2020 16:20:45 GMT-0700 (Pacific Daylight Time)","Mozilla/5.0 (Windows NT 10.0; Win64; x64) AppleWebKit/537.36 (KHTML, like Gecko) Chrome/85.0.4183.121 Safari/537.36",125,"[0.9, 0.5, 0.1]","[0.8, 0.4, 0.2]","[u'blue', u'red', u'black']","[u'left', u'middle', u'right']","[0.8, 0.4, 0.2]","[u'high', u'medium', u'low']","blue",49,"left","high","True","False",125,5000,NA
"A2CWJRAEFZ44HU","Tue Sep 29 2020 16:11:59 GMT-0700 (Pacific Daylight Time)","Tue Sep 29 2020 16:20:45 GMT-0700 (Pacific Daylight Time)","Mozilla/5.0 (Windows NT 10.0; Win64; x64) AppleWebKit/537.36 (KHTML, like Gecko) Chrome/85.0.4183.121 Safari/537.36",126,"[0.9, 0.5, 0.1]","[0.8, 0.4, 0.2]","[u'blue', u'red', u'black']","[u'left', u'middle', u'right']","[0.8, 0.4, 0.2]","[u'high', u'medium', u'low']","blue",49,"left","high","False","False",262,4950,NA
"A2CWJRAEFZ44HU","Tue Sep 29 2020 16:11:59 GMT-0700 (Pacific Daylight Time)","Tue Sep 29 2020 16:20:45 GMT-0700 (Pacific Daylight Time)","Mozilla/5.0 (Windows NT 10.0; Win64; x64) AppleWebKit/537.36 (KHTML, like Gecko) Chrome/85.0.4183.121 Safari/537.36",127,"[0.9, 0.5, 0.1]","[0.8, 0.4, 0.2]","[u'blue', u'red', u'black']","[u'left', u'middle', u'right']","[0.8, 0.4, 0.2]","[u'high', u'medium', u'low']","blue",49,"left","high","True","False",252,5050,NA
"A2CWJRAEFZ44HU","Tue Sep 29 2020 16:11:59 GMT-0700 (Pacific Daylight Time)","Tue Sep 29 2020 16:20:45 GMT-0700 (Pacific Daylight Time)","Mozilla/5.0 (Windows NT 10.0; Win64; x64) AppleWebKit/537.36 (KHTML, like Gecko) Chrome/85.0.4183.121 Safari/537.36",128,"[0.9, 0.5, 0.1]","[0.8, 0.4, 0.2]","[u'blue', u'red', u'black']","[u'left', u'middle', u'right']","[0.8, 0.4, 0.2]","[u'high', u'medium', u'low']","blue",49,"left","high","True","False",128,5150,NA
"A2CWJRAEFZ44HU","Tue Sep 29 2020 16:11:59 GMT-0700 (Pacific Daylight Time)","Tue Sep 29 2020 16:20:45 GMT-0700 (Pacific Daylight Time)","Mozilla/5.0 (Windows NT 10.0; Win64; x64) AppleWebKit/537.36 (KHTML, like Gecko) Chrome/85.0.4183.121 Safari/537.36",129,"[0.9, 0.5, 0.1]","[0.8, 0.4, 0.2]","[u'blue', u'red', u'black']","[u'left', u'middle', u'right']","[0.8, 0.4, 0.2]","[u'high', u'medium', u'low']","blue",49,"left","high","True","False",148,5250,NA
"A2CWJRAEFZ44HU","Tue Sep 29 2020 16:11:59 GMT-0700 (Pacific Daylight Time)","Tue Sep 29 2020 16:20:45 GMT-0700 (Pacific Daylight Time)","Mozilla/5.0 (Windows NT 10.0; Win64; x64) AppleWebKit/537.36 (KHTML, like Gecko) Chrome/85.0.4183.121 Safari/537.36",130,"[0.9, 0.5, 0.1]","[0.8, 0.4, 0.2]","[u'blue', u'red', u'black']","[u'left', u'middle', u'right']","[0.8, 0.4, 0.2]","[u'high', u'medium', u'low']","blue",49,"left","high","False","True",108,5200,NA
"A2CWJRAEFZ44HU","Tue Sep 29 2020 16:11:59 GMT-0700 (Pacific Daylight Time)","Tue Sep 29 2020 16:20:45 GMT-0700 (Pacific Daylight Time)","Mozilla/5.0 (Windows NT 10.0; Win64; x64) AppleWebKit/537.36 (KHTML, like Gecko) Chrome/85.0.4183.121 Safari/537.36",131,"[0.9, 0.5, 0.1]","[0.8, 0.4, 0.2]","[u'blue', u'red', u'black']","[u'left', u'middle', u'right']","[0.8, 0.4, 0.2]","[u'medium', u'high', u'low']","blue",49,"left","medium","True","False",84,5300,NA
"A2CWJRAEFZ44HU","Tue Sep 29 2020 16:11:59 GMT-0700 (Pacific Daylight Time)","Tue Sep 29 2020 16:20:45 GMT-0700 (Pacific Daylight Time)","Mozilla/5.0 (Windows NT 10.0; Win64; x64) AppleWebKit/537.36 (KHTML, like Gecko) Chrome/85.0.4183.121 Safari/537.36",132,"[0.9, 0.5, 0.1]","[0.8, 0.4, 0.2]","[u'blue', u'red', u'black']","[u'left', u'middle', u'right']","[0.8, 0.4, 0.2]","[u'medium', u'high', u'low']","blue",49,"left","medium","False","False",174,5250,NA
"A2CWJRAEFZ44HU","Tue Sep 29 2020 16:11:59 GMT-0700 (Pacific Daylight Time)","Tue Sep 29 2020 16:20:45 GMT-0700 (Pacific Daylight Time)","Mozilla/5.0 (Windows NT 10.0; Win64; x64) AppleWebKit/537.36 (KHTML, like Gecko) Chrome/85.0.4183.121 Safari/537.36",133,"[0.9, 0.5, 0.1]","[0.8, 0.4, 0.2]","[u'blue', u'red', u'black']","[u'left', u'middle', u'right']","[0.8, 0.4, 0.2]","[u'medium', u'high', u'low']","blue",49,"left","medium","True","False",366,5350,NA
"A2CWJRAEFZ44HU","Tue Sep 29 2020 16:11:59 GMT-0700 (Pacific Daylight Time)","Tue Sep 29 2020 16:20:45 GMT-0700 (Pacific Daylight Time)","Mozilla/5.0 (Windows NT 10.0; Win64; x64) AppleWebKit/537.36 (KHTML, like Gecko) Chrome/85.0.4183.121 Safari/537.36",134,"[0.9, 0.5, 0.1]","[0.8, 0.4, 0.2]","[u'blue', u'red', u'black']","[u'left', u'middle', u'right']","[0.8, 0.4, 0.2]","[u'medium', u'high', u'low']","blue",49,"left","medium","True","False",164,5450,NA
"A2CWJRAEFZ44HU","Tue Sep 29 2020 16:11:59 GMT-0700 (Pacific Daylight Time)","Tue Sep 29 2020 16:20:45 GMT-0700 (Pacific Daylight Time)","Mozilla/5.0 (Windows NT 10.0; Win64; x64) AppleWebKit/537.36 (KHTML, like Gecko) Chrome/85.0.4183.121 Safari/537.36",135,"[0.9, 0.5, 0.1]","[0.8, 0.4, 0.2]","[u'blue', u'red', u'black']","[u'left', u'middle', u'right']","[0.8, 0.4, 0.2]","[u'medium', u'high', u'low']","blue",49,"left","medium","True","False",235,5550,NA
"A2CWJRAEFZ44HU","Tue Sep 29 2020 16:11:59 GMT-0700 (Pacific Daylight Time)","Tue Sep 29 2020 16:20:45 GMT-0700 (Pacific Daylight Time)","Mozilla/5.0 (Windows NT 10.0; Win64; x64) AppleWebKit/537.36 (KHTML, like Gecko) Chrome/85.0.4183.121 Safari/537.36",136,"[0.9, 0.5, 0.1]","[0.8, 0.4, 0.2]","[u'blue', u'red', u'black']","[u'left', u'middle', u'right']","[0.8, 0.4, 0.2]","[u'medium', u'high', u'low']","blue",49,"left","medium","False","False",263,5500,NA
"A2CWJRAEFZ44HU","Tue Sep 29 2020 16:11:59 GMT-0700 (Pacific Daylight Time)","Tue Sep 29 2020 16:20:45 GMT-0700 (Pacific Daylight Time)","Mozilla/5.0 (Windows NT 10.0; Win64; x64) AppleWebKit/537.36 (KHTML, like Gecko) Chrome/85.0.4183.121 Safari/537.36",137,"[0.9, 0.5, 0.1]","[0.8, 0.4, 0.2]","[u'blue', u'red', u'black']","[u'left', u'middle', u'right']","[0.8, 0.4, 0.2]","[u'medium', u'high', u'low']","blue",49,"left","medium","False","False",413,5450,NA
"A2CWJRAEFZ44HU","Tue Sep 29 2020 16:11:59 GMT-0700 (Pacific Daylight Time)","Tue Sep 29 2020 16:20:45 GMT-0700 (Pacific Daylight Time)","Mozilla/5.0 (Windows NT 10.0; Win64; x64) AppleWebKit/537.36 (KHTML, like Gecko) Chrome/85.0.4183.121 Safari/537.36",138,"[0.9, 0.5, 0.1]","[0.8, 0.4, 0.2]","[u'blue', u'red', u'black']","[u'left', u'middle', u'right']","[0.8, 0.4, 0.2]","[u'medium', u'high', u'low']","red",50,"middle","high","False","False",18,5400,NA
"A2CWJRAEFZ44HU","Tue Sep 29 2020 16:11:59 GMT-0700 (Pacific Daylight Time)","Tue Sep 29 2020 16:20:45 GMT-0700 (Pacific Daylight Time)","Mozilla/5.0 (Windows NT 10.0; Win64; x64) AppleWebKit/537.36 (KHTML, like Gecko) Chrome/85.0.4183.121 Safari/537.36",139,"[0.9, 0.5, 0.1]","[0.8, 0.4, 0.2]","[u'blue', u'red', u'black']","[u'left', u'middle', u'right']","[0.8, 0.4, 0.2]","[u'medium', u'high', u'low']","black",51,"right","low","True","False",1012,5500,NA
"A2CWJRAEFZ44HU","Tue Sep 29 2020 16:11:59 GMT-0700 (Pacific Daylight Time)","Tue Sep 29 2020 16:20:45 GMT-0700 (Pacific Daylight Time)","Mozilla/5.0 (Windows NT 10.0; Win64; x64) AppleWebKit/537.36 (KHTML, like Gecko) Chrome/85.0.4183.121 Safari/537.36",140,"[0.9, 0.5, 0.1]","[0.8, 0.4, 0.2]","[u'blue', u'red', u'black']","[u'left', u'middle', u'right']","[0.8, 0.4, 0.2]","[u'medium', u'high', u'low']","black",51,"right","low","False","False",316,5450,NA
"A2CWJRAEFZ44HU","Tue Sep 29 2020 16:11:59 GMT-0700 (Pacific Daylight Time)","Tue Sep 29 2020 16:20:45 GMT-0700 (Pacific Daylight Time)","Mozilla/5.0 (Windows NT 10.0; Win64; x64) AppleWebKit/537.36 (KHTML, like Gecko) Chrome/85.0.4183.121 Safari/537.36",141,"[0.9, 0.5, 0.1]","[0.8, 0.4, 0.2]","[u'blue', u'red', u'black']","[u'left', u'middle', u'right']","[0.8, 0.4, 0.2]","[u'medium', u'high', u'low']","black",51,"right","low","True","False",123,5550,NA
"A2CWJRAEFZ44HU","Tue Sep 29 2020 16:11:59 GMT-0700 (Pacific Daylight Time)","Tue Sep 29 2020 16:20:45 GMT-0700 (Pacific Daylight Time)","Mozilla/5.0 (Windows NT 10.0; Win64; x64) AppleWebKit/537.36 (KHTML, like Gecko) Chrome/85.0.4183.121 Safari/537.36",142,"[0.9, 0.5, 0.1]","[0.8, 0.4, 0.2]","[u'blue', u'red', u'black']","[u'left', u'middle', u'right']","[0.8, 0.4, 0.2]","[u'medium', u'high', u'low']","black",51,"right","low","False","False",117,5500,NA
"A2CWJRAEFZ44HU","Tue Sep 29 2020 16:11:59 GMT-0700 (Pacific Daylight Time)","Tue Sep 29 2020 16:20:45 GMT-0700 (Pacific Daylight Time)","Mozilla/5.0 (Windows NT 10.0; Win64; x64) AppleWebKit/537.36 (KHTML, like Gecko) Chrome/85.0.4183.121 Safari/537.36",143,"[0.9, 0.5, 0.1]","[0.8, 0.4, 0.2]","[u'blue', u'red', u'black']","[u'left', u'middle', u'right']","[0.8, 0.4, 0.2]","[u'medium', u'high', u'low']","red",50,"middle","high","False","False",44,5450,NA
"A2CWJRAEFZ44HU","Tue Sep 29 2020 16:11:59 GMT-0700 (Pacific Daylight Time)","Tue Sep 29 2020 16:20:45 GMT-0700 (Pacific Daylight Time)","Mozilla/5.0 (Windows NT 10.0; Win64; x64) AppleWebKit/537.36 (KHTML, like Gecko) Chrome/85.0.4183.121 Safari/537.36",144,"[0.9, 0.5, 0.1]","[0.8, 0.4, 0.2]","[u'blue', u'red', u'black']","[u'left', u'middle', u'right']","[0.8, 0.4, 0.2]","[u'medium', u'high', u'low']","blue",49,"left","medium","False","False",342,5400,NA
"A2CWJRAEFZ44HU","Tue Sep 29 2020 16:11:59 GMT-0700 (Pacific Daylight Time)","Tue Sep 29 2020 16:20:45 GMT-0700 (Pacific Daylight Time)","Mozilla/5.0 (Windows NT 10.0; Win64; x64) AppleWebKit/537.36 (KHTML, like Gecko) Chrome/85.0.4183.121 Safari/537.36",145,"[0.9, 0.5, 0.1]","[0.8, 0.4, 0.2]","[u'blue', u'red', u'black']","[u'left', u'middle', u'right']","[0.8, 0.4, 0.2]","[u'medium', u'high', u'low']","red",50,"middle","high","True","False",338,5500,NA
"A2CWJRAEFZ44HU","Tue Sep 29 2020 16:11:59 GMT-0700 (Pacific Daylight Time)","Tue Sep 29 2020 16:20:45 GMT-0700 (Pacific Daylight Time)","Mozilla/5.0 (Windows NT 10.0; Win64; x64) AppleWebKit/537.36 (KHTML, like Gecko) Chrome/85.0.4183.121 Safari/537.36",146,"[0.9, 0.5, 0.1]","[0.8, 0.4, 0.2]","[u'blue', u'red', u'black']","[u'left', u'middle', u'right']","[0.8, 0.4, 0.2]","[u'medium', u'high', u'low']","red",50,"middle","high","True","False",408,5600,NA
"A2CWJRAEFZ44HU","Tue Sep 29 2020 16:11:59 GMT-0700 (Pacific Daylight Time)","Tue Sep 29 2020 16:20:45 GMT-0700 (Pacific Daylight Time)","Mozilla/5.0 (Windows NT 10.0; Win64; x64) AppleWebKit/537.36 (KHTML, like Gecko) Chrome/85.0.4183.121 Safari/537.36",147,"[0.9, 0.5, 0.1]","[0.8, 0.4, 0.2]","[u'blue', u'red', u'black']","[u'left', u'middle', u'right']","[0.8, 0.4, 0.2]","[u'medium', u'high', u'low']","red",50,"middle","high","True","False",237,5700,NA
"A2CWJRAEFZ44HU","Tue Sep 29 2020 16:11:59 GMT-0700 (Pacific Daylight Time)","Tue Sep 29 2020 16:20:45 GMT-0700 (Pacific Daylight Time)","Mozilla/5.0 (Windows NT 10.0; Win64; x64) AppleWebKit/537.36 (KHTML, like Gecko) Chrome/85.0.4183.121 Safari/537.36",148,"[0.9, 0.5, 0.1]","[0.8, 0.4, 0.2]","[u'blue', u'red', u'black']","[u'left', u'middle', u'right']","[0.8, 0.4, 0.2]","[u'medium', u'high', u'low']","red",50,"middle","high","True","False",346,5800,NA
"A2CWJRAEFZ44HU","Tue Sep 29 2020 16:11:59 GMT-0700 (Pacific Daylight Time)","Tue Sep 29 2020 16:20:45 GMT-0700 (Pacific Daylight Time)","Mozilla/5.0 (Windows NT 10.0; Win64; x64) AppleWebKit/537.36 (KHTML, like Gecko) Chrome/85.0.4183.121 Safari/537.36",149,"[0.9, 0.5, 0.1]","[0.8, 0.4, 0.2]","[u'blue', u'red', u'black']","[u'left', u'middle', u'right']","[0.8, 0.4, 0.2]","[u'medium', u'high', u'low']","red",50,"middle","high","True","False",279,5900,NA
"A2CWJRAEFZ44HU","Tue Sep 29 2020 16:11:59 GMT-0700 (Pacific Daylight Time)","Tue Sep 29 2020 16:20:45 GMT-0700 (Pacific Daylight Time)","Mozilla/5.0 (Windows NT 10.0; Win64; x64) AppleWebKit/537.36 (KHTML, like Gecko) Chrome/85.0.4183.121 Safari/537.36",150,"[0.9, 0.5, 0.1]","[0.8, 0.4, 0.2]","[u'blue', u'red', u'black']","[u'left', u'middle', u'right']","[0.8, 0.4, 0.2]","[u'medium', u'high', u'low']","red",50,"middle","high","True","False",306,6000,NA
"A2CWJRAEFZ44HU","Tue Sep 29 2020 16:11:59 GMT-0700 (Pacific Daylight Time)","Tue Sep 29 2020 16:20:45 GMT-0700 (Pacific Daylight Time)","Mozilla/5.0 (Windows NT 10.0; Win64; x64) AppleWebKit/537.36 (KHTML, like Gecko) Chrome/85.0.4183.121 Safari/537.36",151,"[0.9, 0.5, 0.1]","[0.8, 0.4, 0.2]","[u'blue', u'red', u'black']","[u'left', u'middle', u'right']","[0.8, 0.4, 0.2]","[u'medium', u'high', u'low']","red",50,"middle","high","True","False",137,6100,NA
"A2CWJRAEFZ44HU","Tue Sep 29 2020 16:11:59 GMT-0700 (Pacific Daylight Time)","Tue Sep 29 2020 16:20:45 GMT-0700 (Pacific Daylight Time)","Mozilla/5.0 (Windows NT 10.0; Win64; x64) AppleWebKit/537.36 (KHTML, like Gecko) Chrome/85.0.4183.121 Safari/537.36",152,"[0.9, 0.5, 0.1]","[0.8, 0.4, 0.2]","[u'blue', u'red', u'black']","[u'left', u'middle', u'right']","[0.8, 0.4, 0.2]","[u'medium', u'high', u'low']","red",50,"middle","high","True","True",55,6200,NA
"A2CWJRAEFZ44HU","Tue Sep 29 2020 16:11:59 GMT-0700 (Pacific Daylight Time)","Tue Sep 29 2020 16:20:45 GMT-0700 (Pacific Daylight Time)","Mozilla/5.0 (Windows NT 10.0; Win64; x64) AppleWebKit/537.36 (KHTML, like Gecko) Chrome/85.0.4183.121 Safari/537.36",153,"[0.9, 0.5, 0.1]","[0.8, 0.4, 0.2]","[u'blue', u'red', u'black']","[u'left', u'middle', u'right']","[0.8, 0.4, 0.2]","[u'medium', u'low', u'high']","red",50,"middle","low","True","False",115,6300,NA
"A2CWJRAEFZ44HU","Tue Sep 29 2020 16:11:59 GMT-0700 (Pacific Daylight Time)","Tue Sep 29 2020 16:20:45 GMT-0700 (Pacific Daylight Time)","Mozilla/5.0 (Windows NT 10.0; Win64; x64) AppleWebKit/537.36 (KHTML, like Gecko) Chrome/85.0.4183.121 Safari/537.36",154,"[0.9, 0.5, 0.1]","[0.8, 0.4, 0.2]","[u'blue', u'red', u'black']","[u'left', u'middle', u'right']","[0.8, 0.4, 0.2]","[u'medium', u'low', u'high']","red",50,"middle","low","False","False",179,6250,NA
"A2CWJRAEFZ44HU","Tue Sep 29 2020 16:11:59 GMT-0700 (Pacific Daylight Time)","Tue Sep 29 2020 16:20:45 GMT-0700 (Pacific Daylight Time)","Mozilla/5.0 (Windows NT 10.0; Win64; x64) AppleWebKit/537.36 (KHTML, like Gecko) Chrome/85.0.4183.121 Safari/537.36",155,"[0.9, 0.5, 0.1]","[0.8, 0.4, 0.2]","[u'blue', u'red', u'black']","[u'left', u'middle', u'right']","[0.8, 0.4, 0.2]","[u'medium', u'low', u'high']","black",51,"right","high","True","False",41,6350,NA
"A2CWJRAEFZ44HU","Tue Sep 29 2020 16:11:59 GMT-0700 (Pacific Daylight Time)","Tue Sep 29 2020 16:20:45 GMT-0700 (Pacific Daylight Time)","Mozilla/5.0 (Windows NT 10.0; Win64; x64) AppleWebKit/537.36 (KHTML, like Gecko) Chrome/85.0.4183.121 Safari/537.36",156,"[0.9, 0.5, 0.1]","[0.8, 0.4, 0.2]","[u'blue', u'red', u'black']","[u'left', u'middle', u'right']","[0.8, 0.4, 0.2]","[u'medium', u'low', u'high']","black",51,"right","high","True","False",448,6450,NA
"A2CWJRAEFZ44HU","Tue Sep 29 2020 16:11:59 GMT-0700 (Pacific Daylight Time)","Tue Sep 29 2020 16:20:45 GMT-0700 (Pacific Daylight Time)","Mozilla/5.0 (Windows NT 10.0; Win64; x64) AppleWebKit/537.36 (KHTML, like Gecko) Chrome/85.0.4183.121 Safari/537.36",157,"[0.9, 0.5, 0.1]","[0.8, 0.4, 0.2]","[u'blue', u'red', u'black']","[u'left', u'middle', u'right']","[0.8, 0.4, 0.2]","[u'medium', u'low', u'high']","black",51,"right","high","True","False",379,6550,NA
"A2CWJRAEFZ44HU","Tue Sep 29 2020 16:11:59 GMT-0700 (Pacific Daylight Time)","Tue Sep 29 2020 16:20:45 GMT-0700 (Pacific Daylight Time)","Mozilla/5.0 (Windows NT 10.0; Win64; x64) AppleWebKit/537.36 (KHTML, like Gecko) Chrome/85.0.4183.121 Safari/537.36",158,"[0.9, 0.5, 0.1]","[0.8, 0.4, 0.2]","[u'blue', u'red', u'black']","[u'left', u'middle', u'right']","[0.8, 0.4, 0.2]","[u'medium', u'low', u'high']","black",51,"right","high","True","False",164,6650,NA
"A2CWJRAEFZ44HU","Tue Sep 29 2020 16:11:59 GMT-0700 (Pacific Daylight Time)","Tue Sep 29 2020 16:20:45 GMT-0700 (Pacific Daylight Time)","Mozilla/5.0 (Windows NT 10.0; Win64; x64) AppleWebKit/537.36 (KHTML, like Gecko) Chrome/85.0.4183.121 Safari/537.36",159,"[0.9, 0.5, 0.1]","[0.8, 0.4, 0.2]","[u'blue', u'red', u'black']","[u'left', u'middle', u'right']","[0.8, 0.4, 0.2]","[u'medium', u'low', u'high']","black",51,"right","high","True","False",102,6750,NA
"A2CWJRAEFZ44HU","Tue Sep 29 2020 16:11:59 GMT-0700 (Pacific Daylight Time)","Tue Sep 29 2020 16:20:45 GMT-0700 (Pacific Daylight Time)","Mozilla/5.0 (Windows NT 10.0; Win64; x64) AppleWebKit/537.36 (KHTML, like Gecko) Chrome/85.0.4183.121 Safari/537.36",160,"[0.9, 0.5, 0.1]","[0.8, 0.4, 0.2]","[u'blue', u'red', u'black']","[u'left', u'middle', u'right']","[0.8, 0.4, 0.2]","[u'medium', u'low', u'high']","black",51,"right","high","True","False",285,6850,NA
