"src_subject_id","start_time","end_time","browser","index","first_half_probabilities","second_half_probabilities","deck_color","deck_position","deck_probabilities","deck_contingencies","response_color","key_press","response_position","response_probability","reward_type","trial_type","rt","reward_tally","exclusion_reason"
"A23VWLX98JNB0Z","Wed Sep 30 2020 13:12:04 GMT-0500 (Central Daylight Time)","Wed Sep 30 2020 13:19:13 GMT-0500 (Central Daylight Time)","Mozilla/5.0 (Windows NT 10.0; Win64; x64) AppleWebKit/537.36 (KHTML, like Gecko) Chrome/85.0.4183.121 Safari/537.36",1,"[0.9, 0.5, 0.1]","[0.8, 0.4, 0.2]","[u'black', u'red', u'blue']","[u'left', u'middle', u'right']","[0.9, 0.5, 0.1]","[u'high', u'low', u'medium']","black",49,"left","high","True","False",897,100,NA
"A23VWLX98JNB0Z","Wed Sep 30 2020 13:12:04 GMT-0500 (Central Daylight Time)","Wed Sep 30 2020 13:19:13 GMT-0500 (Central Daylight Time)","Mozilla/5.0 (Windows NT 10.0; Win64; x64) AppleWebKit/537.36 (KHTML, like Gecko) Chrome/85.0.4183.121 Safari/537.36",2,"[0.9, 0.5, 0.1]","[0.8, 0.4, 0.2]","[u'black', u'red', u'blue']","[u'left', u'middle', u'right']","[0.9, 0.5, 0.1]","[u'high', u'low', u'medium']","black",49,"left","high","True","False",330,200,NA
"A23VWLX98JNB0Z","Wed Sep 30 2020 13:12:04 GMT-0500 (Central Daylight Time)","Wed Sep 30 2020 13:19:13 GMT-0500 (Central Daylight Time)","Mozilla/5.0 (Windows NT 10.0; Win64; x64) AppleWebKit/537.36 (KHTML, like Gecko) Chrome/85.0.4183.121 Safari/537.36",3,"[0.9, 0.5, 0.1]","[0.8, 0.4, 0.2]","[u'black', u'red', u'blue']","[u'left', u'middle', u'right']","[0.9, 0.5, 0.1]","[u'high', u'low', u'medium']","black",49,"left","high","True","False",314,300,NA
"A23VWLX98JNB0Z","Wed Sep 30 2020 13:12:04 GMT-0500 (Central Daylight Time)","Wed Sep 30 2020 13:19:13 GMT-0500 (Central Daylight Time)","Mozilla/5.0 (Windows NT 10.0; Win64; x64) AppleWebKit/537.36 (KHTML, like Gecko) Chrome/85.0.4183.121 Safari/537.36",4,"[0.9, 0.5, 0.1]","[0.8, 0.4, 0.2]","[u'black', u'red', u'blue']","[u'left', u'middle', u'right']","[0.9, 0.5, 0.1]","[u'high', u'low', u'medium']","black",49,"left","high","True","False",451,400,NA
"A23VWLX98JNB0Z","Wed Sep 30 2020 13:12:04 GMT-0500 (Central Daylight Time)","Wed Sep 30 2020 13:19:13 GMT-0500 (Central Daylight Time)","Mozilla/5.0 (Windows NT 10.0; Win64; x64) AppleWebKit/537.36 (KHTML, like Gecko) Chrome/85.0.4183.121 Safari/537.36",5,"[0.9, 0.5, 0.1]","[0.8, 0.4, 0.2]","[u'black', u'red', u'blue']","[u'left', u'middle', u'right']","[0.9, 0.5, 0.1]","[u'high', u'low', u'medium']","black",49,"left","high","True","False",346,500,NA
"A23VWLX98JNB0Z","Wed Sep 30 2020 13:12:04 GMT-0500 (Central Daylight Time)","Wed Sep 30 2020 13:19:13 GMT-0500 (Central Daylight Time)","Mozilla/5.0 (Windows NT 10.0; Win64; x64) AppleWebKit/537.36 (KHTML, like Gecko) Chrome/85.0.4183.121 Safari/537.36",6,"[0.9, 0.5, 0.1]","[0.8, 0.4, 0.2]","[u'black', u'red', u'blue']","[u'left', u'middle', u'right']","[0.9, 0.5, 0.1]","[u'high', u'low', u'medium']","black",49,"left","high","False","False",332,450,NA
"A23VWLX98JNB0Z","Wed Sep 30 2020 13:12:04 GMT-0500 (Central Daylight Time)","Wed Sep 30 2020 13:19:13 GMT-0500 (Central Daylight Time)","Mozilla/5.0 (Windows NT 10.0; Win64; x64) AppleWebKit/537.36 (KHTML, like Gecko) Chrome/85.0.4183.121 Safari/537.36",7,"[0.9, 0.5, 0.1]","[0.8, 0.4, 0.2]","[u'black', u'red', u'blue']","[u'left', u'middle', u'right']","[0.9, 0.5, 0.1]","[u'high', u'low', u'medium']","red",50,"middle","low","False","False",322,400,NA
"A23VWLX98JNB0Z","Wed Sep 30 2020 13:12:04 GMT-0500 (Central Daylight Time)","Wed Sep 30 2020 13:19:13 GMT-0500 (Central Daylight Time)","Mozilla/5.0 (Windows NT 10.0; Win64; x64) AppleWebKit/537.36 (KHTML, like Gecko) Chrome/85.0.4183.121 Safari/537.36",8,"[0.9, 0.5, 0.1]","[0.8, 0.4, 0.2]","[u'black', u'red', u'blue']","[u'left', u'middle', u'right']","[0.9, 0.5, 0.1]","[u'high', u'low', u'medium']","blue",51,"right","medium","False","False",258,350,NA
"A23VWLX98JNB0Z","Wed Sep 30 2020 13:12:04 GMT-0500 (Central Daylight Time)","Wed Sep 30 2020 13:19:13 GMT-0500 (Central Daylight Time)","Mozilla/5.0 (Windows NT 10.0; Win64; x64) AppleWebKit/537.36 (KHTML, like Gecko) Chrome/85.0.4183.121 Safari/537.36",9,"[0.9, 0.5, 0.1]","[0.8, 0.4, 0.2]","[u'black', u'red', u'blue']","[u'left', u'middle', u'right']","[0.9, 0.5, 0.1]","[u'high', u'low', u'medium']","black",49,"left","high","True","False",234,450,NA
"A23VWLX98JNB0Z","Wed Sep 30 2020 13:12:04 GMT-0500 (Central Daylight Time)","Wed Sep 30 2020 13:19:13 GMT-0500 (Central Daylight Time)","Mozilla/5.0 (Windows NT 10.0; Win64; x64) AppleWebKit/537.36 (KHTML, like Gecko) Chrome/85.0.4183.121 Safari/537.36",10,"[0.9, 0.5, 0.1]","[0.8, 0.4, 0.2]","[u'black', u'red', u'blue']","[u'left', u'middle', u'right']","[0.9, 0.5, 0.1]","[u'high', u'low', u'medium']","black",49,"left","high","True","False",507,550,NA
"A23VWLX98JNB0Z","Wed Sep 30 2020 13:12:04 GMT-0500 (Central Daylight Time)","Wed Sep 30 2020 13:19:13 GMT-0500 (Central Daylight Time)","Mozilla/5.0 (Windows NT 10.0; Win64; x64) AppleWebKit/537.36 (KHTML, like Gecko) Chrome/85.0.4183.121 Safari/537.36",11,"[0.9, 0.5, 0.1]","[0.8, 0.4, 0.2]","[u'black', u'red', u'blue']","[u'left', u'middle', u'right']","[0.9, 0.5, 0.1]","[u'high', u'low', u'medium']","black",49,"left","high","True","False",466,650,NA
"A23VWLX98JNB0Z","Wed Sep 30 2020 13:12:04 GMT-0500 (Central Daylight Time)","Wed Sep 30 2020 13:19:13 GMT-0500 (Central Daylight Time)","Mozilla/5.0 (Windows NT 10.0; Win64; x64) AppleWebKit/537.36 (KHTML, like Gecko) Chrome/85.0.4183.121 Safari/537.36",12,"[0.9, 0.5, 0.1]","[0.8, 0.4, 0.2]","[u'black', u'red', u'blue']","[u'left', u'middle', u'right']","[0.9, 0.5, 0.1]","[u'high', u'low', u'medium']","black",49,"left","high","True","False",308,750,NA
"A23VWLX98JNB0Z","Wed Sep 30 2020 13:12:04 GMT-0500 (Central Daylight Time)","Wed Sep 30 2020 13:19:13 GMT-0500 (Central Daylight Time)","Mozilla/5.0 (Windows NT 10.0; Win64; x64) AppleWebKit/537.36 (KHTML, like Gecko) Chrome/85.0.4183.121 Safari/537.36",13,"[0.9, 0.5, 0.1]","[0.8, 0.4, 0.2]","[u'black', u'red', u'blue']","[u'left', u'middle', u'right']","[0.9, 0.5, 0.1]","[u'high', u'low', u'medium']","black",49,"left","high","True","False",323,850,NA
"A23VWLX98JNB0Z","Wed Sep 30 2020 13:12:04 GMT-0500 (Central Daylight Time)","Wed Sep 30 2020 13:19:13 GMT-0500 (Central Daylight Time)","Mozilla/5.0 (Windows NT 10.0; Win64; x64) AppleWebKit/537.36 (KHTML, like Gecko) Chrome/85.0.4183.121 Safari/537.36",14,"[0.9, 0.5, 0.1]","[0.8, 0.4, 0.2]","[u'black', u'red', u'blue']","[u'left', u'middle', u'right']","[0.9, 0.5, 0.1]","[u'high', u'low', u'medium']","black",49,"left","high","True","False",299,950,NA
"A23VWLX98JNB0Z","Wed Sep 30 2020 13:12:04 GMT-0500 (Central Daylight Time)","Wed Sep 30 2020 13:19:13 GMT-0500 (Central Daylight Time)","Mozilla/5.0 (Windows NT 10.0; Win64; x64) AppleWebKit/537.36 (KHTML, like Gecko) Chrome/85.0.4183.121 Safari/537.36",15,"[0.9, 0.5, 0.1]","[0.8, 0.4, 0.2]","[u'black', u'red', u'blue']","[u'left', u'middle', u'right']","[0.9, 0.5, 0.1]","[u'high', u'low', u'medium']","black",49,"left","high","True","False",258,1050,NA
"A23VWLX98JNB0Z","Wed Sep 30 2020 13:12:04 GMT-0500 (Central Daylight Time)","Wed Sep 30 2020 13:19:13 GMT-0500 (Central Daylight Time)","Mozilla/5.0 (Windows NT 10.0; Win64; x64) AppleWebKit/537.36 (KHTML, like Gecko) Chrome/85.0.4183.121 Safari/537.36",16,"[0.9, 0.5, 0.1]","[0.8, 0.4, 0.2]","[u'black', u'red', u'blue']","[u'left', u'middle', u'right']","[0.9, 0.5, 0.1]","[u'high', u'low', u'medium']","black",49,"left","high","True","False",379,1150,NA
"A23VWLX98JNB0Z","Wed Sep 30 2020 13:12:04 GMT-0500 (Central Daylight Time)","Wed Sep 30 2020 13:19:13 GMT-0500 (Central Daylight Time)","Mozilla/5.0 (Windows NT 10.0; Win64; x64) AppleWebKit/537.36 (KHTML, like Gecko) Chrome/85.0.4183.121 Safari/537.36",17,"[0.9, 0.5, 0.1]","[0.8, 0.4, 0.2]","[u'black', u'red', u'blue']","[u'left', u'middle', u'right']","[0.9, 0.5, 0.1]","[u'high', u'low', u'medium']","black",49,"left","high","True","True",282,1250,NA
"A23VWLX98JNB0Z","Wed Sep 30 2020 13:12:04 GMT-0500 (Central Daylight Time)","Wed Sep 30 2020 13:19:13 GMT-0500 (Central Daylight Time)","Mozilla/5.0 (Windows NT 10.0; Win64; x64) AppleWebKit/537.36 (KHTML, like Gecko) Chrome/85.0.4183.121 Safari/537.36",18,"[0.9, 0.5, 0.1]","[0.8, 0.4, 0.2]","[u'black', u'red', u'blue']","[u'left', u'middle', u'right']","[0.9, 0.5, 0.1]","[u'medium', u'low', u'high']","black",49,"left","medium","False","False",228,1200,NA
"A23VWLX98JNB0Z","Wed Sep 30 2020 13:12:04 GMT-0500 (Central Daylight Time)","Wed Sep 30 2020 13:19:13 GMT-0500 (Central Daylight Time)","Mozilla/5.0 (Windows NT 10.0; Win64; x64) AppleWebKit/537.36 (KHTML, like Gecko) Chrome/85.0.4183.121 Safari/537.36",19,"[0.9, 0.5, 0.1]","[0.8, 0.4, 0.2]","[u'black', u'red', u'blue']","[u'left', u'middle', u'right']","[0.9, 0.5, 0.1]","[u'medium', u'low', u'high']","black",49,"left","medium","False","False",258,1150,NA
"A23VWLX98JNB0Z","Wed Sep 30 2020 13:12:04 GMT-0500 (Central Daylight Time)","Wed Sep 30 2020 13:19:13 GMT-0500 (Central Daylight Time)","Mozilla/5.0 (Windows NT 10.0; Win64; x64) AppleWebKit/537.36 (KHTML, like Gecko) Chrome/85.0.4183.121 Safari/537.36",20,"[0.9, 0.5, 0.1]","[0.8, 0.4, 0.2]","[u'black', u'red', u'blue']","[u'left', u'middle', u'right']","[0.9, 0.5, 0.1]","[u'medium', u'low', u'high']","red",50,"middle","low","False","False",275,1100,NA
"A23VWLX98JNB0Z","Wed Sep 30 2020 13:12:04 GMT-0500 (Central Daylight Time)","Wed Sep 30 2020 13:19:13 GMT-0500 (Central Daylight Time)","Mozilla/5.0 (Windows NT 10.0; Win64; x64) AppleWebKit/537.36 (KHTML, like Gecko) Chrome/85.0.4183.121 Safari/537.36",21,"[0.9, 0.5, 0.1]","[0.8, 0.4, 0.2]","[u'black', u'red', u'blue']","[u'left', u'middle', u'right']","[0.9, 0.5, 0.1]","[u'medium', u'low', u'high']","blue",51,"right","high","True","False",179,1200,NA
"A23VWLX98JNB0Z","Wed Sep 30 2020 13:12:04 GMT-0500 (Central Daylight Time)","Wed Sep 30 2020 13:19:13 GMT-0500 (Central Daylight Time)","Mozilla/5.0 (Windows NT 10.0; Win64; x64) AppleWebKit/537.36 (KHTML, like Gecko) Chrome/85.0.4183.121 Safari/537.36",22,"[0.9, 0.5, 0.1]","[0.8, 0.4, 0.2]","[u'black', u'red', u'blue']","[u'left', u'middle', u'right']","[0.9, 0.5, 0.1]","[u'medium', u'low', u'high']","blue",51,"right","high","True","False",235,1300,NA
"A23VWLX98JNB0Z","Wed Sep 30 2020 13:12:04 GMT-0500 (Central Daylight Time)","Wed Sep 30 2020 13:19:13 GMT-0500 (Central Daylight Time)","Mozilla/5.0 (Windows NT 10.0; Win64; x64) AppleWebKit/537.36 (KHTML, like Gecko) Chrome/85.0.4183.121 Safari/537.36",23,"[0.9, 0.5, 0.1]","[0.8, 0.4, 0.2]","[u'black', u'red', u'blue']","[u'left', u'middle', u'right']","[0.9, 0.5, 0.1]","[u'medium', u'low', u'high']","blue",51,"right","high","True","False",251,1400,NA
"A23VWLX98JNB0Z","Wed Sep 30 2020 13:12:04 GMT-0500 (Central Daylight Time)","Wed Sep 30 2020 13:19:13 GMT-0500 (Central Daylight Time)","Mozilla/5.0 (Windows NT 10.0; Win64; x64) AppleWebKit/537.36 (KHTML, like Gecko) Chrome/85.0.4183.121 Safari/537.36",24,"[0.9, 0.5, 0.1]","[0.8, 0.4, 0.2]","[u'black', u'red', u'blue']","[u'left', u'middle', u'right']","[0.9, 0.5, 0.1]","[u'medium', u'low', u'high']","blue",51,"right","high","True","False",275,1500,NA
"A23VWLX98JNB0Z","Wed Sep 30 2020 13:12:04 GMT-0500 (Central Daylight Time)","Wed Sep 30 2020 13:19:13 GMT-0500 (Central Daylight Time)","Mozilla/5.0 (Windows NT 10.0; Win64; x64) AppleWebKit/537.36 (KHTML, like Gecko) Chrome/85.0.4183.121 Safari/537.36",25,"[0.9, 0.5, 0.1]","[0.8, 0.4, 0.2]","[u'black', u'red', u'blue']","[u'left', u'middle', u'right']","[0.9, 0.5, 0.1]","[u'medium', u'low', u'high']","blue",51,"right","high","True","False",235,1600,NA
"A23VWLX98JNB0Z","Wed Sep 30 2020 13:12:04 GMT-0500 (Central Daylight Time)","Wed Sep 30 2020 13:19:13 GMT-0500 (Central Daylight Time)","Mozilla/5.0 (Windows NT 10.0; Win64; x64) AppleWebKit/537.36 (KHTML, like Gecko) Chrome/85.0.4183.121 Safari/537.36",26,"[0.9, 0.5, 0.1]","[0.8, 0.4, 0.2]","[u'black', u'red', u'blue']","[u'left', u'middle', u'right']","[0.9, 0.5, 0.1]","[u'medium', u'low', u'high']","blue",51,"right","high","True","False",219,1700,NA
"A23VWLX98JNB0Z","Wed Sep 30 2020 13:12:04 GMT-0500 (Central Daylight Time)","Wed Sep 30 2020 13:19:13 GMT-0500 (Central Daylight Time)","Mozilla/5.0 (Windows NT 10.0; Win64; x64) AppleWebKit/537.36 (KHTML, like Gecko) Chrome/85.0.4183.121 Safari/537.36",27,"[0.9, 0.5, 0.1]","[0.8, 0.4, 0.2]","[u'black', u'red', u'blue']","[u'left', u'middle', u'right']","[0.9, 0.5, 0.1]","[u'medium', u'low', u'high']","blue",51,"right","high","True","False",308,1800,NA
"A23VWLX98JNB0Z","Wed Sep 30 2020 13:12:04 GMT-0500 (Central Daylight Time)","Wed Sep 30 2020 13:19:13 GMT-0500 (Central Daylight Time)","Mozilla/5.0 (Windows NT 10.0; Win64; x64) AppleWebKit/537.36 (KHTML, like Gecko) Chrome/85.0.4183.121 Safari/537.36",28,"[0.9, 0.5, 0.1]","[0.8, 0.4, 0.2]","[u'black', u'red', u'blue']","[u'left', u'middle', u'right']","[0.9, 0.5, 0.1]","[u'medium', u'low', u'high']","blue",51,"right","high","True","False",314,1900,NA
"A23VWLX98JNB0Z","Wed Sep 30 2020 13:12:04 GMT-0500 (Central Daylight Time)","Wed Sep 30 2020 13:19:13 GMT-0500 (Central Daylight Time)","Mozilla/5.0 (Windows NT 10.0; Win64; x64) AppleWebKit/537.36 (KHTML, like Gecko) Chrome/85.0.4183.121 Safari/537.36",29,"[0.9, 0.5, 0.1]","[0.8, 0.4, 0.2]","[u'black', u'red', u'blue']","[u'left', u'middle', u'right']","[0.9, 0.5, 0.1]","[u'medium', u'low', u'high']","blue",51,"right","high","True","True",251,2000,NA
"A23VWLX98JNB0Z","Wed Sep 30 2020 13:12:04 GMT-0500 (Central Daylight Time)","Wed Sep 30 2020 13:19:13 GMT-0500 (Central Daylight Time)","Mozilla/5.0 (Windows NT 10.0; Win64; x64) AppleWebKit/537.36 (KHTML, like Gecko) Chrome/85.0.4183.121 Safari/537.36",30,"[0.9, 0.5, 0.1]","[0.8, 0.4, 0.2]","[u'black', u'red', u'blue']","[u'left', u'middle', u'right']","[0.9, 0.5, 0.1]","[u'high', u'medium', u'low']","blue",51,"right","low","True","False",363,2100,NA
"A23VWLX98JNB0Z","Wed Sep 30 2020 13:12:04 GMT-0500 (Central Daylight Time)","Wed Sep 30 2020 13:19:13 GMT-0500 (Central Daylight Time)","Mozilla/5.0 (Windows NT 10.0; Win64; x64) AppleWebKit/537.36 (KHTML, like Gecko) Chrome/85.0.4183.121 Safari/537.36",31,"[0.9, 0.5, 0.1]","[0.8, 0.4, 0.2]","[u'black', u'red', u'blue']","[u'left', u'middle', u'right']","[0.9, 0.5, 0.1]","[u'high', u'medium', u'low']","blue",51,"right","low","False","False",291,2050,NA
"A23VWLX98JNB0Z","Wed Sep 30 2020 13:12:04 GMT-0500 (Central Daylight Time)","Wed Sep 30 2020 13:19:13 GMT-0500 (Central Daylight Time)","Mozilla/5.0 (Windows NT 10.0; Win64; x64) AppleWebKit/537.36 (KHTML, like Gecko) Chrome/85.0.4183.121 Safari/537.36",32,"[0.9, 0.5, 0.1]","[0.8, 0.4, 0.2]","[u'black', u'red', u'blue']","[u'left', u'middle', u'right']","[0.9, 0.5, 0.1]","[u'high', u'medium', u'low']","blue",51,"right","low","False","False",307,2000,NA
"A23VWLX98JNB0Z","Wed Sep 30 2020 13:12:04 GMT-0500 (Central Daylight Time)","Wed Sep 30 2020 13:19:13 GMT-0500 (Central Daylight Time)","Mozilla/5.0 (Windows NT 10.0; Win64; x64) AppleWebKit/537.36 (KHTML, like Gecko) Chrome/85.0.4183.121 Safari/537.36",33,"[0.9, 0.5, 0.1]","[0.8, 0.4, 0.2]","[u'black', u'red', u'blue']","[u'left', u'middle', u'right']","[0.9, 0.5, 0.1]","[u'high', u'medium', u'low']","red",50,"middle","medium","False","False",275,1950,NA
"A23VWLX98JNB0Z","Wed Sep 30 2020 13:12:04 GMT-0500 (Central Daylight Time)","Wed Sep 30 2020 13:19:13 GMT-0500 (Central Daylight Time)","Mozilla/5.0 (Windows NT 10.0; Win64; x64) AppleWebKit/537.36 (KHTML, like Gecko) Chrome/85.0.4183.121 Safari/537.36",34,"[0.9, 0.5, 0.1]","[0.8, 0.4, 0.2]","[u'black', u'red', u'blue']","[u'left', u'middle', u'right']","[0.9, 0.5, 0.1]","[u'high', u'medium', u'low']","black",49,"left","high","True","False",252,2050,NA
"A23VWLX98JNB0Z","Wed Sep 30 2020 13:12:04 GMT-0500 (Central Daylight Time)","Wed Sep 30 2020 13:19:13 GMT-0500 (Central Daylight Time)","Mozilla/5.0 (Windows NT 10.0; Win64; x64) AppleWebKit/537.36 (KHTML, like Gecko) Chrome/85.0.4183.121 Safari/537.36",35,"[0.9, 0.5, 0.1]","[0.8, 0.4, 0.2]","[u'black', u'red', u'blue']","[u'left', u'middle', u'right']","[0.9, 0.5, 0.1]","[u'high', u'medium', u'low']","black",49,"left","high","True","False",283,2150,NA
"A23VWLX98JNB0Z","Wed Sep 30 2020 13:12:04 GMT-0500 (Central Daylight Time)","Wed Sep 30 2020 13:19:13 GMT-0500 (Central Daylight Time)","Mozilla/5.0 (Windows NT 10.0; Win64; x64) AppleWebKit/537.36 (KHTML, like Gecko) Chrome/85.0.4183.121 Safari/537.36",36,"[0.9, 0.5, 0.1]","[0.8, 0.4, 0.2]","[u'black', u'red', u'blue']","[u'left', u'middle', u'right']","[0.9, 0.5, 0.1]","[u'high', u'medium', u'low']","black",49,"left","high","True","False",259,2250,NA
"A23VWLX98JNB0Z","Wed Sep 30 2020 13:12:04 GMT-0500 (Central Daylight Time)","Wed Sep 30 2020 13:19:13 GMT-0500 (Central Daylight Time)","Mozilla/5.0 (Windows NT 10.0; Win64; x64) AppleWebKit/537.36 (KHTML, like Gecko) Chrome/85.0.4183.121 Safari/537.36",37,"[0.9, 0.5, 0.1]","[0.8, 0.4, 0.2]","[u'black', u'red', u'blue']","[u'left', u'middle', u'right']","[0.9, 0.5, 0.1]","[u'high', u'medium', u'low']","black",49,"left","high","True","False",251,2350,NA
"A23VWLX98JNB0Z","Wed Sep 30 2020 13:12:04 GMT-0500 (Central Daylight Time)","Wed Sep 30 2020 13:19:13 GMT-0500 (Central Daylight Time)","Mozilla/5.0 (Windows NT 10.0; Win64; x64) AppleWebKit/537.36 (KHTML, like Gecko) Chrome/85.0.4183.121 Safari/537.36",38,"[0.9, 0.5, 0.1]","[0.8, 0.4, 0.2]","[u'black', u'red', u'blue']","[u'left', u'middle', u'right']","[0.9, 0.5, 0.1]","[u'high', u'medium', u'low']","black",49,"left","high","True","False",291,2450,NA
"A23VWLX98JNB0Z","Wed Sep 30 2020 13:12:04 GMT-0500 (Central Daylight Time)","Wed Sep 30 2020 13:19:13 GMT-0500 (Central Daylight Time)","Mozilla/5.0 (Windows NT 10.0; Win64; x64) AppleWebKit/537.36 (KHTML, like Gecko) Chrome/85.0.4183.121 Safari/537.36",39,"[0.9, 0.5, 0.1]","[0.8, 0.4, 0.2]","[u'black', u'red', u'blue']","[u'left', u'middle', u'right']","[0.9, 0.5, 0.1]","[u'high', u'medium', u'low']","black",49,"left","high","True","False",292,2550,NA
"A23VWLX98JNB0Z","Wed Sep 30 2020 13:12:04 GMT-0500 (Central Daylight Time)","Wed Sep 30 2020 13:19:13 GMT-0500 (Central Daylight Time)","Mozilla/5.0 (Windows NT 10.0; Win64; x64) AppleWebKit/537.36 (KHTML, like Gecko) Chrome/85.0.4183.121 Safari/537.36",40,"[0.9, 0.5, 0.1]","[0.8, 0.4, 0.2]","[u'black', u'red', u'blue']","[u'left', u'middle', u'right']","[0.9, 0.5, 0.1]","[u'high', u'medium', u'low']","black",49,"left","high","True","False",308,2650,NA
"A23VWLX98JNB0Z","Wed Sep 30 2020 13:12:04 GMT-0500 (Central Daylight Time)","Wed Sep 30 2020 13:19:13 GMT-0500 (Central Daylight Time)","Mozilla/5.0 (Windows NT 10.0; Win64; x64) AppleWebKit/537.36 (KHTML, like Gecko) Chrome/85.0.4183.121 Safari/537.36",41,"[0.9, 0.5, 0.1]","[0.8, 0.4, 0.2]","[u'black', u'red', u'blue']","[u'left', u'middle', u'right']","[0.9, 0.5, 0.1]","[u'medium', u'high', u'low']","black",49,"left","medium","False","False",731,2600,NA
"A23VWLX98JNB0Z","Wed Sep 30 2020 13:12:04 GMT-0500 (Central Daylight Time)","Wed Sep 30 2020 13:19:13 GMT-0500 (Central Daylight Time)","Mozilla/5.0 (Windows NT 10.0; Win64; x64) AppleWebKit/537.36 (KHTML, like Gecko) Chrome/85.0.4183.121 Safari/537.36",42,"[0.9, 0.5, 0.1]","[0.8, 0.4, 0.2]","[u'black', u'red', u'blue']","[u'left', u'middle', u'right']","[0.9, 0.5, 0.1]","[u'medium', u'high', u'low']","black",49,"left","medium","False","False",554,2550,NA
"A23VWLX98JNB0Z","Wed Sep 30 2020 13:12:04 GMT-0500 (Central Daylight Time)","Wed Sep 30 2020 13:19:13 GMT-0500 (Central Daylight Time)","Mozilla/5.0 (Windows NT 10.0; Win64; x64) AppleWebKit/537.36 (KHTML, like Gecko) Chrome/85.0.4183.121 Safari/537.36",43,"[0.9, 0.5, 0.1]","[0.8, 0.4, 0.2]","[u'black', u'red', u'blue']","[u'left', u'middle', u'right']","[0.9, 0.5, 0.1]","[u'medium', u'high', u'low']","red",50,"middle","high","True","False",243,2650,NA
"A23VWLX98JNB0Z","Wed Sep 30 2020 13:12:04 GMT-0500 (Central Daylight Time)","Wed Sep 30 2020 13:19:13 GMT-0500 (Central Daylight Time)","Mozilla/5.0 (Windows NT 10.0; Win64; x64) AppleWebKit/537.36 (KHTML, like Gecko) Chrome/85.0.4183.121 Safari/537.36",44,"[0.9, 0.5, 0.1]","[0.8, 0.4, 0.2]","[u'black', u'red', u'blue']","[u'left', u'middle', u'right']","[0.9, 0.5, 0.1]","[u'medium', u'high', u'low']","red",50,"middle","high","True","False",236,2750,NA
"A23VWLX98JNB0Z","Wed Sep 30 2020 13:12:04 GMT-0500 (Central Daylight Time)","Wed Sep 30 2020 13:19:13 GMT-0500 (Central Daylight Time)","Mozilla/5.0 (Windows NT 10.0; Win64; x64) AppleWebKit/537.36 (KHTML, like Gecko) Chrome/85.0.4183.121 Safari/537.36",45,"[0.9, 0.5, 0.1]","[0.8, 0.4, 0.2]","[u'black', u'red', u'blue']","[u'left', u'middle', u'right']","[0.9, 0.5, 0.1]","[u'medium', u'high', u'low']","red",50,"middle","high","True","False",291,2850,NA
"A23VWLX98JNB0Z","Wed Sep 30 2020 13:12:04 GMT-0500 (Central Daylight Time)","Wed Sep 30 2020 13:19:13 GMT-0500 (Central Daylight Time)","Mozilla/5.0 (Windows NT 10.0; Win64; x64) AppleWebKit/537.36 (KHTML, like Gecko) Chrome/85.0.4183.121 Safari/537.36",46,"[0.9, 0.5, 0.1]","[0.8, 0.4, 0.2]","[u'black', u'red', u'blue']","[u'left', u'middle', u'right']","[0.9, 0.5, 0.1]","[u'medium', u'high', u'low']","red",50,"middle","high","True","False",267,2950,NA
"A23VWLX98JNB0Z","Wed Sep 30 2020 13:12:04 GMT-0500 (Central Daylight Time)","Wed Sep 30 2020 13:19:13 GMT-0500 (Central Daylight Time)","Mozilla/5.0 (Windows NT 10.0; Win64; x64) AppleWebKit/537.36 (KHTML, like Gecko) Chrome/85.0.4183.121 Safari/537.36",47,"[0.9, 0.5, 0.1]","[0.8, 0.4, 0.2]","[u'black', u'red', u'blue']","[u'left', u'middle', u'right']","[0.9, 0.5, 0.1]","[u'medium', u'high', u'low']","red",50,"middle","high","True","False",267,3050,NA
"A23VWLX98JNB0Z","Wed Sep 30 2020 13:12:04 GMT-0500 (Central Daylight Time)","Wed Sep 30 2020 13:19:13 GMT-0500 (Central Daylight Time)","Mozilla/5.0 (Windows NT 10.0; Win64; x64) AppleWebKit/537.36 (KHTML, like Gecko) Chrome/85.0.4183.121 Safari/537.36",48,"[0.9, 0.5, 0.1]","[0.8, 0.4, 0.2]","[u'black', u'red', u'blue']","[u'left', u'middle', u'right']","[0.9, 0.5, 0.1]","[u'medium', u'high', u'low']","red",50,"middle","high","True","False",251,3150,NA
"A23VWLX98JNB0Z","Wed Sep 30 2020 13:12:04 GMT-0500 (Central Daylight Time)","Wed Sep 30 2020 13:19:13 GMT-0500 (Central Daylight Time)","Mozilla/5.0 (Windows NT 10.0; Win64; x64) AppleWebKit/537.36 (KHTML, like Gecko) Chrome/85.0.4183.121 Safari/537.36",49,"[0.9, 0.5, 0.1]","[0.8, 0.4, 0.2]","[u'black', u'red', u'blue']","[u'left', u'middle', u'right']","[0.9, 0.5, 0.1]","[u'medium', u'high', u'low']","red",50,"middle","high","True","False",227,3250,NA
"A23VWLX98JNB0Z","Wed Sep 30 2020 13:12:04 GMT-0500 (Central Daylight Time)","Wed Sep 30 2020 13:19:13 GMT-0500 (Central Daylight Time)","Mozilla/5.0 (Windows NT 10.0; Win64; x64) AppleWebKit/537.36 (KHTML, like Gecko) Chrome/85.0.4183.121 Safari/537.36",50,"[0.9, 0.5, 0.1]","[0.8, 0.4, 0.2]","[u'black', u'red', u'blue']","[u'left', u'middle', u'right']","[0.9, 0.5, 0.1]","[u'medium', u'high', u'low']","red",50,"middle","high","True","False",204,3350,NA
"A23VWLX98JNB0Z","Wed Sep 30 2020 13:12:04 GMT-0500 (Central Daylight Time)","Wed Sep 30 2020 13:19:13 GMT-0500 (Central Daylight Time)","Mozilla/5.0 (Windows NT 10.0; Win64; x64) AppleWebKit/537.36 (KHTML, like Gecko) Chrome/85.0.4183.121 Safari/537.36",51,"[0.9, 0.5, 0.1]","[0.8, 0.4, 0.2]","[u'black', u'red', u'blue']","[u'left', u'middle', u'right']","[0.9, 0.5, 0.1]","[u'medium', u'high', u'low']","red",50,"middle","high","True","True",347,3450,NA
"A23VWLX98JNB0Z","Wed Sep 30 2020 13:12:04 GMT-0500 (Central Daylight Time)","Wed Sep 30 2020 13:19:13 GMT-0500 (Central Daylight Time)","Mozilla/5.0 (Windows NT 10.0; Win64; x64) AppleWebKit/537.36 (KHTML, like Gecko) Chrome/85.0.4183.121 Safari/537.36",52,"[0.9, 0.5, 0.1]","[0.8, 0.4, 0.2]","[u'black', u'red', u'blue']","[u'left', u'middle', u'right']","[0.9, 0.5, 0.1]","[u'high', u'low', u'medium']","red",50,"middle","low","False","False",467,3400,NA
"A23VWLX98JNB0Z","Wed Sep 30 2020 13:12:04 GMT-0500 (Central Daylight Time)","Wed Sep 30 2020 13:19:13 GMT-0500 (Central Daylight Time)","Mozilla/5.0 (Windows NT 10.0; Win64; x64) AppleWebKit/537.36 (KHTML, like Gecko) Chrome/85.0.4183.121 Safari/537.36",53,"[0.9, 0.5, 0.1]","[0.8, 0.4, 0.2]","[u'black', u'red', u'blue']","[u'left', u'middle', u'right']","[0.9, 0.5, 0.1]","[u'high', u'low', u'medium']","red",50,"middle","low","False","False",331,3350,NA
"A23VWLX98JNB0Z","Wed Sep 30 2020 13:12:04 GMT-0500 (Central Daylight Time)","Wed Sep 30 2020 13:19:13 GMT-0500 (Central Daylight Time)","Mozilla/5.0 (Windows NT 10.0; Win64; x64) AppleWebKit/537.36 (KHTML, like Gecko) Chrome/85.0.4183.121 Safari/537.36",54,"[0.9, 0.5, 0.1]","[0.8, 0.4, 0.2]","[u'black', u'red', u'blue']","[u'left', u'middle', u'right']","[0.9, 0.5, 0.1]","[u'high', u'low', u'medium']","blue",51,"right","medium","False","False",228,3300,NA
"A23VWLX98JNB0Z","Wed Sep 30 2020 13:12:04 GMT-0500 (Central Daylight Time)","Wed Sep 30 2020 13:19:13 GMT-0500 (Central Daylight Time)","Mozilla/5.0 (Windows NT 10.0; Win64; x64) AppleWebKit/537.36 (KHTML, like Gecko) Chrome/85.0.4183.121 Safari/537.36",55,"[0.9, 0.5, 0.1]","[0.8, 0.4, 0.2]","[u'black', u'red', u'blue']","[u'left', u'middle', u'right']","[0.9, 0.5, 0.1]","[u'high', u'low', u'medium']","black",49,"left","high","True","False",268,3400,NA
"A23VWLX98JNB0Z","Wed Sep 30 2020 13:12:04 GMT-0500 (Central Daylight Time)","Wed Sep 30 2020 13:19:13 GMT-0500 (Central Daylight Time)","Mozilla/5.0 (Windows NT 10.0; Win64; x64) AppleWebKit/537.36 (KHTML, like Gecko) Chrome/85.0.4183.121 Safari/537.36",56,"[0.9, 0.5, 0.1]","[0.8, 0.4, 0.2]","[u'black', u'red', u'blue']","[u'left', u'middle', u'right']","[0.9, 0.5, 0.1]","[u'high', u'low', u'medium']","black",49,"left","high","True","False",266,3500,NA
"A23VWLX98JNB0Z","Wed Sep 30 2020 13:12:04 GMT-0500 (Central Daylight Time)","Wed Sep 30 2020 13:19:13 GMT-0500 (Central Daylight Time)","Mozilla/5.0 (Windows NT 10.0; Win64; x64) AppleWebKit/537.36 (KHTML, like Gecko) Chrome/85.0.4183.121 Safari/537.36",57,"[0.9, 0.5, 0.1]","[0.8, 0.4, 0.2]","[u'black', u'red', u'blue']","[u'left', u'middle', u'right']","[0.9, 0.5, 0.1]","[u'high', u'low', u'medium']","black",49,"left","high","True","False",250,3600,NA
"A23VWLX98JNB0Z","Wed Sep 30 2020 13:12:04 GMT-0500 (Central Daylight Time)","Wed Sep 30 2020 13:19:13 GMT-0500 (Central Daylight Time)","Mozilla/5.0 (Windows NT 10.0; Win64; x64) AppleWebKit/537.36 (KHTML, like Gecko) Chrome/85.0.4183.121 Safari/537.36",58,"[0.9, 0.5, 0.1]","[0.8, 0.4, 0.2]","[u'black', u'red', u'blue']","[u'left', u'middle', u'right']","[0.9, 0.5, 0.1]","[u'high', u'low', u'medium']","black",49,"left","high","True","False",267,3700,NA
"A23VWLX98JNB0Z","Wed Sep 30 2020 13:12:04 GMT-0500 (Central Daylight Time)","Wed Sep 30 2020 13:19:13 GMT-0500 (Central Daylight Time)","Mozilla/5.0 (Windows NT 10.0; Win64; x64) AppleWebKit/537.36 (KHTML, like Gecko) Chrome/85.0.4183.121 Safari/537.36",59,"[0.9, 0.5, 0.1]","[0.8, 0.4, 0.2]","[u'black', u'red', u'blue']","[u'left', u'middle', u'right']","[0.9, 0.5, 0.1]","[u'high', u'low', u'medium']","black",49,"left","high","True","False",275,3800,NA
"A23VWLX98JNB0Z","Wed Sep 30 2020 13:12:04 GMT-0500 (Central Daylight Time)","Wed Sep 30 2020 13:19:13 GMT-0500 (Central Daylight Time)","Mozilla/5.0 (Windows NT 10.0; Win64; x64) AppleWebKit/537.36 (KHTML, like Gecko) Chrome/85.0.4183.121 Safari/537.36",60,"[0.9, 0.5, 0.1]","[0.8, 0.4, 0.2]","[u'black', u'red', u'blue']","[u'left', u'middle', u'right']","[0.9, 0.5, 0.1]","[u'high', u'low', u'medium']","black",49,"left","high","True","False",243,3900,NA
"A23VWLX98JNB0Z","Wed Sep 30 2020 13:12:04 GMT-0500 (Central Daylight Time)","Wed Sep 30 2020 13:19:13 GMT-0500 (Central Daylight Time)","Mozilla/5.0 (Windows NT 10.0; Win64; x64) AppleWebKit/537.36 (KHTML, like Gecko) Chrome/85.0.4183.121 Safari/537.36",61,"[0.9, 0.5, 0.1]","[0.8, 0.4, 0.2]","[u'black', u'red', u'blue']","[u'left', u'middle', u'right']","[0.9, 0.5, 0.1]","[u'high', u'low', u'medium']","black",49,"left","high","True","False",267,4000,NA
"A23VWLX98JNB0Z","Wed Sep 30 2020 13:12:04 GMT-0500 (Central Daylight Time)","Wed Sep 30 2020 13:19:13 GMT-0500 (Central Daylight Time)","Mozilla/5.0 (Windows NT 10.0; Win64; x64) AppleWebKit/537.36 (KHTML, like Gecko) Chrome/85.0.4183.121 Safari/537.36",62,"[0.9, 0.5, 0.1]","[0.8, 0.4, 0.2]","[u'black', u'red', u'blue']","[u'left', u'middle', u'right']","[0.9, 0.5, 0.1]","[u'high', u'low', u'medium']","black",49,"left","high","False","False",322,3950,NA
"A23VWLX98JNB0Z","Wed Sep 30 2020 13:12:04 GMT-0500 (Central Daylight Time)","Wed Sep 30 2020 13:19:13 GMT-0500 (Central Daylight Time)","Mozilla/5.0 (Windows NT 10.0; Win64; x64) AppleWebKit/537.36 (KHTML, like Gecko) Chrome/85.0.4183.121 Safari/537.36",63,"[0.9, 0.5, 0.1]","[0.8, 0.4, 0.2]","[u'black', u'red', u'blue']","[u'left', u'middle', u'right']","[0.9, 0.5, 0.1]","[u'high', u'low', u'medium']","black",49,"left","high","True","True",179,4050,NA
"A23VWLX98JNB0Z","Wed Sep 30 2020 13:12:04 GMT-0500 (Central Daylight Time)","Wed Sep 30 2020 13:19:13 GMT-0500 (Central Daylight Time)","Mozilla/5.0 (Windows NT 10.0; Win64; x64) AppleWebKit/537.36 (KHTML, like Gecko) Chrome/85.0.4183.121 Safari/537.36",64,"[0.9, 0.5, 0.1]","[0.8, 0.4, 0.2]","[u'black', u'red', u'blue']","[u'left', u'middle', u'right']","[0.9, 0.5, 0.1]","[u'low', u'medium', u'high']","black",49,"left","low","False","False",307,4000,NA
"A23VWLX98JNB0Z","Wed Sep 30 2020 13:12:04 GMT-0500 (Central Daylight Time)","Wed Sep 30 2020 13:19:13 GMT-0500 (Central Daylight Time)","Mozilla/5.0 (Windows NT 10.0; Win64; x64) AppleWebKit/537.36 (KHTML, like Gecko) Chrome/85.0.4183.121 Safari/537.36",65,"[0.9, 0.5, 0.1]","[0.8, 0.4, 0.2]","[u'black', u'red', u'blue']","[u'left', u'middle', u'right']","[0.9, 0.5, 0.1]","[u'low', u'medium', u'high']","black",49,"left","low","False","False",450,3950,NA
"A23VWLX98JNB0Z","Wed Sep 30 2020 13:12:04 GMT-0500 (Central Daylight Time)","Wed Sep 30 2020 13:19:13 GMT-0500 (Central Daylight Time)","Mozilla/5.0 (Windows NT 10.0; Win64; x64) AppleWebKit/537.36 (KHTML, like Gecko) Chrome/85.0.4183.121 Safari/537.36",66,"[0.9, 0.5, 0.1]","[0.8, 0.4, 0.2]","[u'black', u'red', u'blue']","[u'left', u'middle', u'right']","[0.9, 0.5, 0.1]","[u'low', u'medium', u'high']","red",50,"middle","medium","True","False",211,4050,NA
"A23VWLX98JNB0Z","Wed Sep 30 2020 13:12:04 GMT-0500 (Central Daylight Time)","Wed Sep 30 2020 13:19:13 GMT-0500 (Central Daylight Time)","Mozilla/5.0 (Windows NT 10.0; Win64; x64) AppleWebKit/537.36 (KHTML, like Gecko) Chrome/85.0.4183.121 Safari/537.36",67,"[0.9, 0.5, 0.1]","[0.8, 0.4, 0.2]","[u'black', u'red', u'blue']","[u'left', u'middle', u'right']","[0.9, 0.5, 0.1]","[u'low', u'medium', u'high']","red",50,"middle","medium","True","False",259,4150,NA
"A23VWLX98JNB0Z","Wed Sep 30 2020 13:12:04 GMT-0500 (Central Daylight Time)","Wed Sep 30 2020 13:19:13 GMT-0500 (Central Daylight Time)","Mozilla/5.0 (Windows NT 10.0; Win64; x64) AppleWebKit/537.36 (KHTML, like Gecko) Chrome/85.0.4183.121 Safari/537.36",68,"[0.9, 0.5, 0.1]","[0.8, 0.4, 0.2]","[u'black', u'red', u'blue']","[u'left', u'middle', u'right']","[0.9, 0.5, 0.1]","[u'low', u'medium', u'high']","red",50,"middle","medium","False","False",259,4100,NA
"A23VWLX98JNB0Z","Wed Sep 30 2020 13:12:04 GMT-0500 (Central Daylight Time)","Wed Sep 30 2020 13:19:13 GMT-0500 (Central Daylight Time)","Mozilla/5.0 (Windows NT 10.0; Win64; x64) AppleWebKit/537.36 (KHTML, like Gecko) Chrome/85.0.4183.121 Safari/537.36",69,"[0.9, 0.5, 0.1]","[0.8, 0.4, 0.2]","[u'black', u'red', u'blue']","[u'left', u'middle', u'right']","[0.9, 0.5, 0.1]","[u'low', u'medium', u'high']","red",50,"middle","medium","False","False",267,4050,NA
"A23VWLX98JNB0Z","Wed Sep 30 2020 13:12:04 GMT-0500 (Central Daylight Time)","Wed Sep 30 2020 13:19:13 GMT-0500 (Central Daylight Time)","Mozilla/5.0 (Windows NT 10.0; Win64; x64) AppleWebKit/537.36 (KHTML, like Gecko) Chrome/85.0.4183.121 Safari/537.36",70,"[0.9, 0.5, 0.1]","[0.8, 0.4, 0.2]","[u'black', u'red', u'blue']","[u'left', u'middle', u'right']","[0.9, 0.5, 0.1]","[u'low', u'medium', u'high']","blue",51,"right","high","False","False",250,4000,NA
"A23VWLX98JNB0Z","Wed Sep 30 2020 13:12:04 GMT-0500 (Central Daylight Time)","Wed Sep 30 2020 13:19:13 GMT-0500 (Central Daylight Time)","Mozilla/5.0 (Windows NT 10.0; Win64; x64) AppleWebKit/537.36 (KHTML, like Gecko) Chrome/85.0.4183.121 Safari/537.36",71,"[0.9, 0.5, 0.1]","[0.8, 0.4, 0.2]","[u'black', u'red', u'blue']","[u'left', u'middle', u'right']","[0.9, 0.5, 0.1]","[u'low', u'medium', u'high']","black",49,"left","low","False","False",171,3950,NA
"A23VWLX98JNB0Z","Wed Sep 30 2020 13:12:04 GMT-0500 (Central Daylight Time)","Wed Sep 30 2020 13:19:13 GMT-0500 (Central Daylight Time)","Mozilla/5.0 (Windows NT 10.0; Win64; x64) AppleWebKit/537.36 (KHTML, like Gecko) Chrome/85.0.4183.121 Safari/537.36",72,"[0.9, 0.5, 0.1]","[0.8, 0.4, 0.2]","[u'black', u'red', u'blue']","[u'left', u'middle', u'right']","[0.9, 0.5, 0.1]","[u'low', u'medium', u'high']","black",49,"left","low","False","False",339,3900,NA
"A23VWLX98JNB0Z","Wed Sep 30 2020 13:12:04 GMT-0500 (Central Daylight Time)","Wed Sep 30 2020 13:19:13 GMT-0500 (Central Daylight Time)","Mozilla/5.0 (Windows NT 10.0; Win64; x64) AppleWebKit/537.36 (KHTML, like Gecko) Chrome/85.0.4183.121 Safari/537.36",73,"[0.9, 0.5, 0.1]","[0.8, 0.4, 0.2]","[u'black', u'red', u'blue']","[u'left', u'middle', u'right']","[0.9, 0.5, 0.1]","[u'low', u'medium', u'high']","blue",51,"right","high","True","False",131,4000,NA
"A23VWLX98JNB0Z","Wed Sep 30 2020 13:12:04 GMT-0500 (Central Daylight Time)","Wed Sep 30 2020 13:19:13 GMT-0500 (Central Daylight Time)","Mozilla/5.0 (Windows NT 10.0; Win64; x64) AppleWebKit/537.36 (KHTML, like Gecko) Chrome/85.0.4183.121 Safari/537.36",74,"[0.9, 0.5, 0.1]","[0.8, 0.4, 0.2]","[u'black', u'red', u'blue']","[u'left', u'middle', u'right']","[0.9, 0.5, 0.1]","[u'low', u'medium', u'high']","blue",51,"right","high","False","False",107,3950,NA
"A23VWLX98JNB0Z","Wed Sep 30 2020 13:12:04 GMT-0500 (Central Daylight Time)","Wed Sep 30 2020 13:19:13 GMT-0500 (Central Daylight Time)","Mozilla/5.0 (Windows NT 10.0; Win64; x64) AppleWebKit/537.36 (KHTML, like Gecko) Chrome/85.0.4183.121 Safari/537.36",75,"[0.9, 0.5, 0.1]","[0.8, 0.4, 0.2]","[u'black', u'red', u'blue']","[u'left', u'middle', u'right']","[0.9, 0.5, 0.1]","[u'low', u'medium', u'high']","blue",51,"right","high","False","False",434,3900,NA
"A23VWLX98JNB0Z","Wed Sep 30 2020 13:12:04 GMT-0500 (Central Daylight Time)","Wed Sep 30 2020 13:19:13 GMT-0500 (Central Daylight Time)","Mozilla/5.0 (Windows NT 10.0; Win64; x64) AppleWebKit/537.36 (KHTML, like Gecko) Chrome/85.0.4183.121 Safari/537.36",76,"[0.9, 0.5, 0.1]","[0.8, 0.4, 0.2]","[u'black', u'red', u'blue']","[u'left', u'middle', u'right']","[0.9, 0.5, 0.1]","[u'low', u'medium', u'high']","red",50,"middle","medium","True","False",68,4000,NA
"A23VWLX98JNB0Z","Wed Sep 30 2020 13:12:04 GMT-0500 (Central Daylight Time)","Wed Sep 30 2020 13:19:13 GMT-0500 (Central Daylight Time)","Mozilla/5.0 (Windows NT 10.0; Win64; x64) AppleWebKit/537.36 (KHTML, like Gecko) Chrome/85.0.4183.121 Safari/537.36",77,"[0.9, 0.5, 0.1]","[0.8, 0.4, 0.2]","[u'black', u'red', u'blue']","[u'left', u'middle', u'right']","[0.9, 0.5, 0.1]","[u'low', u'medium', u'high']","red",50,"middle","medium","True","False",219,4100,NA
"A23VWLX98JNB0Z","Wed Sep 30 2020 13:12:04 GMT-0500 (Central Daylight Time)","Wed Sep 30 2020 13:19:13 GMT-0500 (Central Daylight Time)","Mozilla/5.0 (Windows NT 10.0; Win64; x64) AppleWebKit/537.36 (KHTML, like Gecko) Chrome/85.0.4183.121 Safari/537.36",78,"[0.9, 0.5, 0.1]","[0.8, 0.4, 0.2]","[u'black', u'red', u'blue']","[u'left', u'middle', u'right']","[0.9, 0.5, 0.1]","[u'low', u'medium', u'high']","red",50,"middle","medium","True","False",283,4200,NA
"A23VWLX98JNB0Z","Wed Sep 30 2020 13:12:04 GMT-0500 (Central Daylight Time)","Wed Sep 30 2020 13:19:13 GMT-0500 (Central Daylight Time)","Mozilla/5.0 (Windows NT 10.0; Win64; x64) AppleWebKit/537.36 (KHTML, like Gecko) Chrome/85.0.4183.121 Safari/537.36",79,"[0.9, 0.5, 0.1]","[0.8, 0.4, 0.2]","[u'black', u'red', u'blue']","[u'left', u'middle', u'right']","[0.9, 0.5, 0.1]","[u'low', u'medium', u'high']","red",50,"middle","medium","False","False",227,4150,NA
"A23VWLX98JNB0Z","Wed Sep 30 2020 13:12:04 GMT-0500 (Central Daylight Time)","Wed Sep 30 2020 13:19:13 GMT-0500 (Central Daylight Time)","Mozilla/5.0 (Windows NT 10.0; Win64; x64) AppleWebKit/537.36 (KHTML, like Gecko) Chrome/85.0.4183.121 Safari/537.36",80,"[0.9, 0.5, 0.1]","[0.8, 0.4, 0.2]","[u'black', u'red', u'blue']","[u'left', u'middle', u'right']","[0.9, 0.5, 0.1]","[u'low', u'medium', u'high']","red",50,"middle","medium","True","False",275,4250,NA
"A23VWLX98JNB0Z","Wed Sep 30 2020 13:12:04 GMT-0500 (Central Daylight Time)","Wed Sep 30 2020 13:19:13 GMT-0500 (Central Daylight Time)","Mozilla/5.0 (Windows NT 10.0; Win64; x64) AppleWebKit/537.36 (KHTML, like Gecko) Chrome/85.0.4183.121 Safari/537.36",81,"[0.9, 0.5, 0.1]","[0.8, 0.4, 0.2]","[u'black', u'red', u'blue']","[u'left', u'middle', u'right']","[0.8, 0.4, 0.2]","[u'low', u'high', u'medium']","black",49,"left","low","False","False",1012,4200,NA
"A23VWLX98JNB0Z","Wed Sep 30 2020 13:12:04 GMT-0500 (Central Daylight Time)","Wed Sep 30 2020 13:19:13 GMT-0500 (Central Daylight Time)","Mozilla/5.0 (Windows NT 10.0; Win64; x64) AppleWebKit/537.36 (KHTML, like Gecko) Chrome/85.0.4183.121 Safari/537.36",82,"[0.9, 0.5, 0.1]","[0.8, 0.4, 0.2]","[u'black', u'red', u'blue']","[u'left', u'middle', u'right']","[0.8, 0.4, 0.2]","[u'low', u'high', u'medium']","red",50,"middle","high","False","False",251,4150,NA
"A23VWLX98JNB0Z","Wed Sep 30 2020 13:12:04 GMT-0500 (Central Daylight Time)","Wed Sep 30 2020 13:19:13 GMT-0500 (Central Daylight Time)","Mozilla/5.0 (Windows NT 10.0; Win64; x64) AppleWebKit/537.36 (KHTML, like Gecko) Chrome/85.0.4183.121 Safari/537.36",83,"[0.9, 0.5, 0.1]","[0.8, 0.4, 0.2]","[u'black', u'red', u'blue']","[u'left', u'middle', u'right']","[0.8, 0.4, 0.2]","[u'low', u'high', u'medium']","blue",51,"right","medium","False","False",243,4100,NA
"A23VWLX98JNB0Z","Wed Sep 30 2020 13:12:04 GMT-0500 (Central Daylight Time)","Wed Sep 30 2020 13:19:13 GMT-0500 (Central Daylight Time)","Mozilla/5.0 (Windows NT 10.0; Win64; x64) AppleWebKit/537.36 (KHTML, like Gecko) Chrome/85.0.4183.121 Safari/537.36",84,"[0.9, 0.5, 0.1]","[0.8, 0.4, 0.2]","[u'black', u'red', u'blue']","[u'left', u'middle', u'right']","[0.8, 0.4, 0.2]","[u'low', u'high', u'medium']","blue",51,"right","medium","True","False",307,4200,NA
"A23VWLX98JNB0Z","Wed Sep 30 2020 13:12:04 GMT-0500 (Central Daylight Time)","Wed Sep 30 2020 13:19:13 GMT-0500 (Central Daylight Time)","Mozilla/5.0 (Windows NT 10.0; Win64; x64) AppleWebKit/537.36 (KHTML, like Gecko) Chrome/85.0.4183.121 Safari/537.36",85,"[0.9, 0.5, 0.1]","[0.8, 0.4, 0.2]","[u'black', u'red', u'blue']","[u'left', u'middle', u'right']","[0.8, 0.4, 0.2]","[u'low', u'high', u'medium']","blue",51,"right","medium","True","False",220,4300,NA
"A23VWLX98JNB0Z","Wed Sep 30 2020 13:12:04 GMT-0500 (Central Daylight Time)","Wed Sep 30 2020 13:19:13 GMT-0500 (Central Daylight Time)","Mozilla/5.0 (Windows NT 10.0; Win64; x64) AppleWebKit/537.36 (KHTML, like Gecko) Chrome/85.0.4183.121 Safari/537.36",86,"[0.9, 0.5, 0.1]","[0.8, 0.4, 0.2]","[u'black', u'red', u'blue']","[u'left', u'middle', u'right']","[0.8, 0.4, 0.2]","[u'low', u'high', u'medium']","blue",51,"right","medium","True","False",252,4400,NA
"A23VWLX98JNB0Z","Wed Sep 30 2020 13:12:04 GMT-0500 (Central Daylight Time)","Wed Sep 30 2020 13:19:13 GMT-0500 (Central Daylight Time)","Mozilla/5.0 (Windows NT 10.0; Win64; x64) AppleWebKit/537.36 (KHTML, like Gecko) Chrome/85.0.4183.121 Safari/537.36",87,"[0.9, 0.5, 0.1]","[0.8, 0.4, 0.2]","[u'black', u'red', u'blue']","[u'left', u'middle', u'right']","[0.8, 0.4, 0.2]","[u'low', u'high', u'medium']","blue",51,"right","medium","False","False",203,4350,NA
"A23VWLX98JNB0Z","Wed Sep 30 2020 13:12:04 GMT-0500 (Central Daylight Time)","Wed Sep 30 2020 13:19:13 GMT-0500 (Central Daylight Time)","Mozilla/5.0 (Windows NT 10.0; Win64; x64) AppleWebKit/537.36 (KHTML, like Gecko) Chrome/85.0.4183.121 Safari/537.36",88,"[0.9, 0.5, 0.1]","[0.8, 0.4, 0.2]","[u'black', u'red', u'blue']","[u'left', u'middle', u'right']","[0.8, 0.4, 0.2]","[u'low', u'high', u'medium']","blue",51,"right","medium","False","False",154,4300,NA
"A23VWLX98JNB0Z","Wed Sep 30 2020 13:12:04 GMT-0500 (Central Daylight Time)","Wed Sep 30 2020 13:19:13 GMT-0500 (Central Daylight Time)","Mozilla/5.0 (Windows NT 10.0; Win64; x64) AppleWebKit/537.36 (KHTML, like Gecko) Chrome/85.0.4183.121 Safari/537.36",89,"[0.9, 0.5, 0.1]","[0.8, 0.4, 0.2]","[u'black', u'red', u'blue']","[u'left', u'middle', u'right']","[0.8, 0.4, 0.2]","[u'low', u'high', u'medium']","red",50,"middle","high","False","False",203,4250,NA
"A23VWLX98JNB0Z","Wed Sep 30 2020 13:12:04 GMT-0500 (Central Daylight Time)","Wed Sep 30 2020 13:19:13 GMT-0500 (Central Daylight Time)","Mozilla/5.0 (Windows NT 10.0; Win64; x64) AppleWebKit/537.36 (KHTML, like Gecko) Chrome/85.0.4183.121 Safari/537.36",90,"[0.9, 0.5, 0.1]","[0.8, 0.4, 0.2]","[u'black', u'red', u'blue']","[u'left', u'middle', u'right']","[0.8, 0.4, 0.2]","[u'low', u'high', u'medium']","black",49,"left","low","False","False",147,4200,NA
"A23VWLX98JNB0Z","Wed Sep 30 2020 13:12:04 GMT-0500 (Central Daylight Time)","Wed Sep 30 2020 13:19:13 GMT-0500 (Central Daylight Time)","Mozilla/5.0 (Windows NT 10.0; Win64; x64) AppleWebKit/537.36 (KHTML, like Gecko) Chrome/85.0.4183.121 Safari/537.36",91,"[0.9, 0.5, 0.1]","[0.8, 0.4, 0.2]","[u'black', u'red', u'blue']","[u'left', u'middle', u'right']","[0.8, 0.4, 0.2]","[u'low', u'high', u'medium']","red",50,"middle","high","True","False",75,4300,NA
"A23VWLX98JNB0Z","Wed Sep 30 2020 13:12:04 GMT-0500 (Central Daylight Time)","Wed Sep 30 2020 13:19:13 GMT-0500 (Central Daylight Time)","Mozilla/5.0 (Windows NT 10.0; Win64; x64) AppleWebKit/537.36 (KHTML, like Gecko) Chrome/85.0.4183.121 Safari/537.36",92,"[0.9, 0.5, 0.1]","[0.8, 0.4, 0.2]","[u'black', u'red', u'blue']","[u'left', u'middle', u'right']","[0.8, 0.4, 0.2]","[u'low', u'high', u'medium']","red",50,"middle","high","True","False",275,4400,NA
"A23VWLX98JNB0Z","Wed Sep 30 2020 13:12:04 GMT-0500 (Central Daylight Time)","Wed Sep 30 2020 13:19:13 GMT-0500 (Central Daylight Time)","Mozilla/5.0 (Windows NT 10.0; Win64; x64) AppleWebKit/537.36 (KHTML, like Gecko) Chrome/85.0.4183.121 Safari/537.36",93,"[0.9, 0.5, 0.1]","[0.8, 0.4, 0.2]","[u'black', u'red', u'blue']","[u'left', u'middle', u'right']","[0.8, 0.4, 0.2]","[u'low', u'high', u'medium']","red",50,"middle","high","True","False",180,4500,NA
"A23VWLX98JNB0Z","Wed Sep 30 2020 13:12:04 GMT-0500 (Central Daylight Time)","Wed Sep 30 2020 13:19:13 GMT-0500 (Central Daylight Time)","Mozilla/5.0 (Windows NT 10.0; Win64; x64) AppleWebKit/537.36 (KHTML, like Gecko) Chrome/85.0.4183.121 Safari/537.36",94,"[0.9, 0.5, 0.1]","[0.8, 0.4, 0.2]","[u'black', u'red', u'blue']","[u'left', u'middle', u'right']","[0.8, 0.4, 0.2]","[u'low', u'high', u'medium']","red",50,"middle","high","True","False",146,4600,NA
"A23VWLX98JNB0Z","Wed Sep 30 2020 13:12:04 GMT-0500 (Central Daylight Time)","Wed Sep 30 2020 13:19:13 GMT-0500 (Central Daylight Time)","Mozilla/5.0 (Windows NT 10.0; Win64; x64) AppleWebKit/537.36 (KHTML, like Gecko) Chrome/85.0.4183.121 Safari/537.36",95,"[0.9, 0.5, 0.1]","[0.8, 0.4, 0.2]","[u'black', u'red', u'blue']","[u'left', u'middle', u'right']","[0.8, 0.4, 0.2]","[u'low', u'high', u'medium']","red",50,"middle","high","True","False",171,4700,NA
"A23VWLX98JNB0Z","Wed Sep 30 2020 13:12:04 GMT-0500 (Central Daylight Time)","Wed Sep 30 2020 13:19:13 GMT-0500 (Central Daylight Time)","Mozilla/5.0 (Windows NT 10.0; Win64; x64) AppleWebKit/537.36 (KHTML, like Gecko) Chrome/85.0.4183.121 Safari/537.36",96,"[0.9, 0.5, 0.1]","[0.8, 0.4, 0.2]","[u'black', u'red', u'blue']","[u'left', u'middle', u'right']","[0.8, 0.4, 0.2]","[u'low', u'high', u'medium']","red",50,"middle","high","False","False",347,4650,NA
"A23VWLX98JNB0Z","Wed Sep 30 2020 13:12:04 GMT-0500 (Central Daylight Time)","Wed Sep 30 2020 13:19:13 GMT-0500 (Central Daylight Time)","Mozilla/5.0 (Windows NT 10.0; Win64; x64) AppleWebKit/537.36 (KHTML, like Gecko) Chrome/85.0.4183.121 Safari/537.36",97,"[0.9, 0.5, 0.1]","[0.8, 0.4, 0.2]","[u'black', u'red', u'blue']","[u'left', u'middle', u'right']","[0.8, 0.4, 0.2]","[u'low', u'high', u'medium']","red",50,"middle","high","False","False",267,4600,NA
"A23VWLX98JNB0Z","Wed Sep 30 2020 13:12:04 GMT-0500 (Central Daylight Time)","Wed Sep 30 2020 13:19:13 GMT-0500 (Central Daylight Time)","Mozilla/5.0 (Windows NT 10.0; Win64; x64) AppleWebKit/537.36 (KHTML, like Gecko) Chrome/85.0.4183.121 Safari/537.36",98,"[0.9, 0.5, 0.1]","[0.8, 0.4, 0.2]","[u'black', u'red', u'blue']","[u'left', u'middle', u'right']","[0.8, 0.4, 0.2]","[u'low', u'high', u'medium']","black",49,"left","low","True","False",291,4700,NA
"A23VWLX98JNB0Z","Wed Sep 30 2020 13:12:04 GMT-0500 (Central Daylight Time)","Wed Sep 30 2020 13:19:13 GMT-0500 (Central Daylight Time)","Mozilla/5.0 (Windows NT 10.0; Win64; x64) AppleWebKit/537.36 (KHTML, like Gecko) Chrome/85.0.4183.121 Safari/537.36",99,"[0.9, 0.5, 0.1]","[0.8, 0.4, 0.2]","[u'black', u'red', u'blue']","[u'left', u'middle', u'right']","[0.8, 0.4, 0.2]","[u'low', u'high', u'medium']","black",49,"left","low","False","False",308,4650,NA
"A23VWLX98JNB0Z","Wed Sep 30 2020 13:12:04 GMT-0500 (Central Daylight Time)","Wed Sep 30 2020 13:19:13 GMT-0500 (Central Daylight Time)","Mozilla/5.0 (Windows NT 10.0; Win64; x64) AppleWebKit/537.36 (KHTML, like Gecko) Chrome/85.0.4183.121 Safari/537.36",100,"[0.9, 0.5, 0.1]","[0.8, 0.4, 0.2]","[u'black', u'red', u'blue']","[u'left', u'middle', u'right']","[0.8, 0.4, 0.2]","[u'low', u'high', u'medium']","black",49,"left","low","False","False",251,4600,NA
"A23VWLX98JNB0Z","Wed Sep 30 2020 13:12:04 GMT-0500 (Central Daylight Time)","Wed Sep 30 2020 13:19:13 GMT-0500 (Central Daylight Time)","Mozilla/5.0 (Windows NT 10.0; Win64; x64) AppleWebKit/537.36 (KHTML, like Gecko) Chrome/85.0.4183.121 Safari/537.36",101,"[0.9, 0.5, 0.1]","[0.8, 0.4, 0.2]","[u'black', u'red', u'blue']","[u'left', u'middle', u'right']","[0.8, 0.4, 0.2]","[u'low', u'high', u'medium']","blue",51,"right","medium","False","False",91,4550,NA
"A23VWLX98JNB0Z","Wed Sep 30 2020 13:12:04 GMT-0500 (Central Daylight Time)","Wed Sep 30 2020 13:19:13 GMT-0500 (Central Daylight Time)","Mozilla/5.0 (Windows NT 10.0; Win64; x64) AppleWebKit/537.36 (KHTML, like Gecko) Chrome/85.0.4183.121 Safari/537.36",102,"[0.9, 0.5, 0.1]","[0.8, 0.4, 0.2]","[u'black', u'red', u'blue']","[u'left', u'middle', u'right']","[0.8, 0.4, 0.2]","[u'low', u'high', u'medium']","blue",51,"right","medium","False","False",98,4500,NA
"A23VWLX98JNB0Z","Wed Sep 30 2020 13:12:04 GMT-0500 (Central Daylight Time)","Wed Sep 30 2020 13:19:13 GMT-0500 (Central Daylight Time)","Mozilla/5.0 (Windows NT 10.0; Win64; x64) AppleWebKit/537.36 (KHTML, like Gecko) Chrome/85.0.4183.121 Safari/537.36",103,"[0.9, 0.5, 0.1]","[0.8, 0.4, 0.2]","[u'black', u'red', u'blue']","[u'left', u'middle', u'right']","[0.8, 0.4, 0.2]","[u'low', u'high', u'medium']","red",50,"middle","high","True","False",84,4600,NA
"A23VWLX98JNB0Z","Wed Sep 30 2020 13:12:04 GMT-0500 (Central Daylight Time)","Wed Sep 30 2020 13:19:13 GMT-0500 (Central Daylight Time)","Mozilla/5.0 (Windows NT 10.0; Win64; x64) AppleWebKit/537.36 (KHTML, like Gecko) Chrome/85.0.4183.121 Safari/537.36",104,"[0.9, 0.5, 0.1]","[0.8, 0.4, 0.2]","[u'black', u'red', u'blue']","[u'left', u'middle', u'right']","[0.8, 0.4, 0.2]","[u'low', u'high', u'medium']","red",50,"middle","high","False","False",170,4550,NA
"A23VWLX98JNB0Z","Wed Sep 30 2020 13:12:04 GMT-0500 (Central Daylight Time)","Wed Sep 30 2020 13:19:13 GMT-0500 (Central Daylight Time)","Mozilla/5.0 (Windows NT 10.0; Win64; x64) AppleWebKit/537.36 (KHTML, like Gecko) Chrome/85.0.4183.121 Safari/537.36",105,"[0.9, 0.5, 0.1]","[0.8, 0.4, 0.2]","[u'black', u'red', u'blue']","[u'left', u'middle', u'right']","[0.8, 0.4, 0.2]","[u'low', u'high', u'medium']","red",50,"middle","high","False","False",115,4500,NA
"A23VWLX98JNB0Z","Wed Sep 30 2020 13:12:04 GMT-0500 (Central Daylight Time)","Wed Sep 30 2020 13:19:13 GMT-0500 (Central Daylight Time)","Mozilla/5.0 (Windows NT 10.0; Win64; x64) AppleWebKit/537.36 (KHTML, like Gecko) Chrome/85.0.4183.121 Safari/537.36",106,"[0.9, 0.5, 0.1]","[0.8, 0.4, 0.2]","[u'black', u'red', u'blue']","[u'left', u'middle', u'right']","[0.8, 0.4, 0.2]","[u'low', u'high', u'medium']","black",49,"left","low","False","False",219,4450,NA
"A23VWLX98JNB0Z","Wed Sep 30 2020 13:12:04 GMT-0500 (Central Daylight Time)","Wed Sep 30 2020 13:19:13 GMT-0500 (Central Daylight Time)","Mozilla/5.0 (Windows NT 10.0; Win64; x64) AppleWebKit/537.36 (KHTML, like Gecko) Chrome/85.0.4183.121 Safari/537.36",107,"[0.9, 0.5, 0.1]","[0.8, 0.4, 0.2]","[u'black', u'red', u'blue']","[u'left', u'middle', u'right']","[0.8, 0.4, 0.2]","[u'low', u'high', u'medium']","black",49,"left","low","False","False",147,4400,NA
"A23VWLX98JNB0Z","Wed Sep 30 2020 13:12:04 GMT-0500 (Central Daylight Time)","Wed Sep 30 2020 13:19:13 GMT-0500 (Central Daylight Time)","Mozilla/5.0 (Windows NT 10.0; Win64; x64) AppleWebKit/537.36 (KHTML, like Gecko) Chrome/85.0.4183.121 Safari/537.36",108,"[0.9, 0.5, 0.1]","[0.8, 0.4, 0.2]","[u'black', u'red', u'blue']","[u'left', u'middle', u'right']","[0.8, 0.4, 0.2]","[u'low', u'high', u'medium']","blue",51,"right","medium","True","False",99,4500,NA
"A23VWLX98JNB0Z","Wed Sep 30 2020 13:12:04 GMT-0500 (Central Daylight Time)","Wed Sep 30 2020 13:19:13 GMT-0500 (Central Daylight Time)","Mozilla/5.0 (Windows NT 10.0; Win64; x64) AppleWebKit/537.36 (KHTML, like Gecko) Chrome/85.0.4183.121 Safari/537.36",109,"[0.9, 0.5, 0.1]","[0.8, 0.4, 0.2]","[u'black', u'red', u'blue']","[u'left', u'middle', u'right']","[0.8, 0.4, 0.2]","[u'low', u'high', u'medium']","blue",51,"right","medium","False","False",219,4450,NA
"A23VWLX98JNB0Z","Wed Sep 30 2020 13:12:04 GMT-0500 (Central Daylight Time)","Wed Sep 30 2020 13:19:13 GMT-0500 (Central Daylight Time)","Mozilla/5.0 (Windows NT 10.0; Win64; x64) AppleWebKit/537.36 (KHTML, like Gecko) Chrome/85.0.4183.121 Safari/537.36",110,"[0.9, 0.5, 0.1]","[0.8, 0.4, 0.2]","[u'black', u'red', u'blue']","[u'left', u'middle', u'right']","[0.8, 0.4, 0.2]","[u'low', u'high', u'medium']","blue",51,"right","medium","False","False",203,4400,NA
"A23VWLX98JNB0Z","Wed Sep 30 2020 13:12:04 GMT-0500 (Central Daylight Time)","Wed Sep 30 2020 13:19:13 GMT-0500 (Central Daylight Time)","Mozilla/5.0 (Windows NT 10.0; Win64; x64) AppleWebKit/537.36 (KHTML, like Gecko) Chrome/85.0.4183.121 Safari/537.36",111,"[0.9, 0.5, 0.1]","[0.8, 0.4, 0.2]","[u'black', u'red', u'blue']","[u'left', u'middle', u'right']","[0.8, 0.4, 0.2]","[u'low', u'high', u'medium']","red",50,"middle","high","False","False",147,4350,NA
"A23VWLX98JNB0Z","Wed Sep 30 2020 13:12:04 GMT-0500 (Central Daylight Time)","Wed Sep 30 2020 13:19:13 GMT-0500 (Central Daylight Time)","Mozilla/5.0 (Windows NT 10.0; Win64; x64) AppleWebKit/537.36 (KHTML, like Gecko) Chrome/85.0.4183.121 Safari/537.36",112,"[0.9, 0.5, 0.1]","[0.8, 0.4, 0.2]","[u'black', u'red', u'blue']","[u'left', u'middle', u'right']","[0.8, 0.4, 0.2]","[u'low', u'high', u'medium']","black",49,"left","low","False","False",147,4300,NA
"A23VWLX98JNB0Z","Wed Sep 30 2020 13:12:04 GMT-0500 (Central Daylight Time)","Wed Sep 30 2020 13:19:13 GMT-0500 (Central Daylight Time)","Mozilla/5.0 (Windows NT 10.0; Win64; x64) AppleWebKit/537.36 (KHTML, like Gecko) Chrome/85.0.4183.121 Safari/537.36",113,"[0.9, 0.5, 0.1]","[0.8, 0.4, 0.2]","[u'black', u'red', u'blue']","[u'left', u'middle', u'right']","[0.8, 0.4, 0.2]","[u'low', u'high', u'medium']","red",50,"middle","high","True","False",202,4400,NA
"A23VWLX98JNB0Z","Wed Sep 30 2020 13:12:04 GMT-0500 (Central Daylight Time)","Wed Sep 30 2020 13:19:13 GMT-0500 (Central Daylight Time)","Mozilla/5.0 (Windows NT 10.0; Win64; x64) AppleWebKit/537.36 (KHTML, like Gecko) Chrome/85.0.4183.121 Safari/537.36",114,"[0.9, 0.5, 0.1]","[0.8, 0.4, 0.2]","[u'black', u'red', u'blue']","[u'left', u'middle', u'right']","[0.8, 0.4, 0.2]","[u'low', u'high', u'medium']","red",50,"middle","high","True","False",251,4500,NA
"A23VWLX98JNB0Z","Wed Sep 30 2020 13:12:04 GMT-0500 (Central Daylight Time)","Wed Sep 30 2020 13:19:13 GMT-0500 (Central Daylight Time)","Mozilla/5.0 (Windows NT 10.0; Win64; x64) AppleWebKit/537.36 (KHTML, like Gecko) Chrome/85.0.4183.121 Safari/537.36",115,"[0.9, 0.5, 0.1]","[0.8, 0.4, 0.2]","[u'black', u'red', u'blue']","[u'left', u'middle', u'right']","[0.8, 0.4, 0.2]","[u'low', u'high', u'medium']","red",50,"middle","high","True","False",234,4600,NA
"A23VWLX98JNB0Z","Wed Sep 30 2020 13:12:04 GMT-0500 (Central Daylight Time)","Wed Sep 30 2020 13:19:13 GMT-0500 (Central Daylight Time)","Mozilla/5.0 (Windows NT 10.0; Win64; x64) AppleWebKit/537.36 (KHTML, like Gecko) Chrome/85.0.4183.121 Safari/537.36",116,"[0.9, 0.5, 0.1]","[0.8, 0.4, 0.2]","[u'black', u'red', u'blue']","[u'left', u'middle', u'right']","[0.8, 0.4, 0.2]","[u'low', u'high', u'medium']","red",50,"middle","high","False","False",259,4550,NA
"A23VWLX98JNB0Z","Wed Sep 30 2020 13:12:04 GMT-0500 (Central Daylight Time)","Wed Sep 30 2020 13:19:13 GMT-0500 (Central Daylight Time)","Mozilla/5.0 (Windows NT 10.0; Win64; x64) AppleWebKit/537.36 (KHTML, like Gecko) Chrome/85.0.4183.121 Safari/537.36",117,"[0.9, 0.5, 0.1]","[0.8, 0.4, 0.2]","[u'black', u'red', u'blue']","[u'left', u'middle', u'right']","[0.8, 0.4, 0.2]","[u'low', u'high', u'medium']","red",50,"middle","high","True","False",178,4650,NA
"A23VWLX98JNB0Z","Wed Sep 30 2020 13:12:04 GMT-0500 (Central Daylight Time)","Wed Sep 30 2020 13:19:13 GMT-0500 (Central Daylight Time)","Mozilla/5.0 (Windows NT 10.0; Win64; x64) AppleWebKit/537.36 (KHTML, like Gecko) Chrome/85.0.4183.121 Safari/537.36",118,"[0.9, 0.5, 0.1]","[0.8, 0.4, 0.2]","[u'black', u'red', u'blue']","[u'left', u'middle', u'right']","[0.8, 0.4, 0.2]","[u'low', u'high', u'medium']","red",50,"middle","high","True","False",1378,4750,NA
"A23VWLX98JNB0Z","Wed Sep 30 2020 13:12:04 GMT-0500 (Central Daylight Time)","Wed Sep 30 2020 13:19:13 GMT-0500 (Central Daylight Time)","Mozilla/5.0 (Windows NT 10.0; Win64; x64) AppleWebKit/537.36 (KHTML, like Gecko) Chrome/85.0.4183.121 Safari/537.36",119,"[0.9, 0.5, 0.1]","[0.8, 0.4, 0.2]","[u'black', u'red', u'blue']","[u'left', u'middle', u'right']","[0.8, 0.4, 0.2]","[u'low', u'high', u'medium']","red",50,"middle","high","True","False",307,4850,NA
"A23VWLX98JNB0Z","Wed Sep 30 2020 13:12:04 GMT-0500 (Central Daylight Time)","Wed Sep 30 2020 13:19:13 GMT-0500 (Central Daylight Time)","Mozilla/5.0 (Windows NT 10.0; Win64; x64) AppleWebKit/537.36 (KHTML, like Gecko) Chrome/85.0.4183.121 Safari/537.36",120,"[0.9, 0.5, 0.1]","[0.8, 0.4, 0.2]","[u'black', u'red', u'blue']","[u'left', u'middle', u'right']","[0.8, 0.4, 0.2]","[u'low', u'high', u'medium']","red",50,"middle","high","False","True",275,4800,NA
"A23VWLX98JNB0Z","Wed Sep 30 2020 13:12:04 GMT-0500 (Central Daylight Time)","Wed Sep 30 2020 13:19:13 GMT-0500 (Central Daylight Time)","Mozilla/5.0 (Windows NT 10.0; Win64; x64) AppleWebKit/537.36 (KHTML, like Gecko) Chrome/85.0.4183.121 Safari/537.36",121,"[0.9, 0.5, 0.1]","[0.8, 0.4, 0.2]","[u'black', u'red', u'blue']","[u'left', u'middle', u'right']","[0.8, 0.4, 0.2]","[u'high', u'low', u'medium']","black",49,"left","high","True","False",290,4900,NA
"A23VWLX98JNB0Z","Wed Sep 30 2020 13:12:04 GMT-0500 (Central Daylight Time)","Wed Sep 30 2020 13:19:13 GMT-0500 (Central Daylight Time)","Mozilla/5.0 (Windows NT 10.0; Win64; x64) AppleWebKit/537.36 (KHTML, like Gecko) Chrome/85.0.4183.121 Safari/537.36",122,"[0.9, 0.5, 0.1]","[0.8, 0.4, 0.2]","[u'black', u'red', u'blue']","[u'left', u'middle', u'right']","[0.8, 0.4, 0.2]","[u'high', u'low', u'medium']","black",49,"left","high","True","False",226,5000,NA
"A23VWLX98JNB0Z","Wed Sep 30 2020 13:12:04 GMT-0500 (Central Daylight Time)","Wed Sep 30 2020 13:19:13 GMT-0500 (Central Daylight Time)","Mozilla/5.0 (Windows NT 10.0; Win64; x64) AppleWebKit/537.36 (KHTML, like Gecko) Chrome/85.0.4183.121 Safari/537.36",123,"[0.9, 0.5, 0.1]","[0.8, 0.4, 0.2]","[u'black', u'red', u'blue']","[u'left', u'middle', u'right']","[0.8, 0.4, 0.2]","[u'high', u'low', u'medium']","black",49,"left","high","True","False",243,5100,NA
"A23VWLX98JNB0Z","Wed Sep 30 2020 13:12:04 GMT-0500 (Central Daylight Time)","Wed Sep 30 2020 13:19:13 GMT-0500 (Central Daylight Time)","Mozilla/5.0 (Windows NT 10.0; Win64; x64) AppleWebKit/537.36 (KHTML, like Gecko) Chrome/85.0.4183.121 Safari/537.36",124,"[0.9, 0.5, 0.1]","[0.8, 0.4, 0.2]","[u'black', u'red', u'blue']","[u'left', u'middle', u'right']","[0.8, 0.4, 0.2]","[u'high', u'low', u'medium']","black",49,"left","high","True","False",276,5200,NA
"A23VWLX98JNB0Z","Wed Sep 30 2020 13:12:04 GMT-0500 (Central Daylight Time)","Wed Sep 30 2020 13:19:13 GMT-0500 (Central Daylight Time)","Mozilla/5.0 (Windows NT 10.0; Win64; x64) AppleWebKit/537.36 (KHTML, like Gecko) Chrome/85.0.4183.121 Safari/537.36",125,"[0.9, 0.5, 0.1]","[0.8, 0.4, 0.2]","[u'black', u'red', u'blue']","[u'left', u'middle', u'right']","[0.8, 0.4, 0.2]","[u'high', u'low', u'medium']","black",49,"left","high","True","False",194,5300,NA
"A23VWLX98JNB0Z","Wed Sep 30 2020 13:12:04 GMT-0500 (Central Daylight Time)","Wed Sep 30 2020 13:19:13 GMT-0500 (Central Daylight Time)","Mozilla/5.0 (Windows NT 10.0; Win64; x64) AppleWebKit/537.36 (KHTML, like Gecko) Chrome/85.0.4183.121 Safari/537.36",126,"[0.9, 0.5, 0.1]","[0.8, 0.4, 0.2]","[u'black', u'red', u'blue']","[u'left', u'middle', u'right']","[0.8, 0.4, 0.2]","[u'high', u'low', u'medium']","black",49,"left","high","False","False",219,5250,NA
"A23VWLX98JNB0Z","Wed Sep 30 2020 13:12:04 GMT-0500 (Central Daylight Time)","Wed Sep 30 2020 13:19:13 GMT-0500 (Central Daylight Time)","Mozilla/5.0 (Windows NT 10.0; Win64; x64) AppleWebKit/537.36 (KHTML, like Gecko) Chrome/85.0.4183.121 Safari/537.36",127,"[0.9, 0.5, 0.1]","[0.8, 0.4, 0.2]","[u'black', u'red', u'blue']","[u'left', u'middle', u'right']","[0.8, 0.4, 0.2]","[u'high', u'low', u'medium']","black",49,"left","high","True","False",243,5350,NA
"A23VWLX98JNB0Z","Wed Sep 30 2020 13:12:04 GMT-0500 (Central Daylight Time)","Wed Sep 30 2020 13:19:13 GMT-0500 (Central Daylight Time)","Mozilla/5.0 (Windows NT 10.0; Win64; x64) AppleWebKit/537.36 (KHTML, like Gecko) Chrome/85.0.4183.121 Safari/537.36",128,"[0.9, 0.5, 0.1]","[0.8, 0.4, 0.2]","[u'black', u'red', u'blue']","[u'left', u'middle', u'right']","[0.8, 0.4, 0.2]","[u'high', u'low', u'medium']","black",49,"left","high","True","False",257,5450,NA
"A23VWLX98JNB0Z","Wed Sep 30 2020 13:12:04 GMT-0500 (Central Daylight Time)","Wed Sep 30 2020 13:19:13 GMT-0500 (Central Daylight Time)","Mozilla/5.0 (Windows NT 10.0; Win64; x64) AppleWebKit/537.36 (KHTML, like Gecko) Chrome/85.0.4183.121 Safari/537.36",129,"[0.9, 0.5, 0.1]","[0.8, 0.4, 0.2]","[u'black', u'red', u'blue']","[u'left', u'middle', u'right']","[0.8, 0.4, 0.2]","[u'high', u'low', u'medium']","black",49,"left","high","True","True",258,5550,NA
"A23VWLX98JNB0Z","Wed Sep 30 2020 13:12:04 GMT-0500 (Central Daylight Time)","Wed Sep 30 2020 13:19:13 GMT-0500 (Central Daylight Time)","Mozilla/5.0 (Windows NT 10.0; Win64; x64) AppleWebKit/537.36 (KHTML, like Gecko) Chrome/85.0.4183.121 Safari/537.36",130,"[0.9, 0.5, 0.1]","[0.8, 0.4, 0.2]","[u'black', u'red', u'blue']","[u'left', u'middle', u'right']","[0.8, 0.4, 0.2]","[u'medium', u'low', u'high']","black",49,"left","medium","False","False",243,5500,NA
"A23VWLX98JNB0Z","Wed Sep 30 2020 13:12:04 GMT-0500 (Central Daylight Time)","Wed Sep 30 2020 13:19:13 GMT-0500 (Central Daylight Time)","Mozilla/5.0 (Windows NT 10.0; Win64; x64) AppleWebKit/537.36 (KHTML, like Gecko) Chrome/85.0.4183.121 Safari/537.36",131,"[0.9, 0.5, 0.1]","[0.8, 0.4, 0.2]","[u'black', u'red', u'blue']","[u'left', u'middle', u'right']","[0.8, 0.4, 0.2]","[u'medium', u'low', u'high']","black",49,"left","medium","False","False",338,5450,NA
"A23VWLX98JNB0Z","Wed Sep 30 2020 13:12:04 GMT-0500 (Central Daylight Time)","Wed Sep 30 2020 13:19:13 GMT-0500 (Central Daylight Time)","Mozilla/5.0 (Windows NT 10.0; Win64; x64) AppleWebKit/537.36 (KHTML, like Gecko) Chrome/85.0.4183.121 Safari/537.36",132,"[0.9, 0.5, 0.1]","[0.8, 0.4, 0.2]","[u'black', u'red', u'blue']","[u'left', u'middle', u'right']","[0.8, 0.4, 0.2]","[u'medium', u'low', u'high']","black",49,"left","medium","True","False",314,5550,NA
"A23VWLX98JNB0Z","Wed Sep 30 2020 13:12:04 GMT-0500 (Central Daylight Time)","Wed Sep 30 2020 13:19:13 GMT-0500 (Central Daylight Time)","Mozilla/5.0 (Windows NT 10.0; Win64; x64) AppleWebKit/537.36 (KHTML, like Gecko) Chrome/85.0.4183.121 Safari/537.36",133,"[0.9, 0.5, 0.1]","[0.8, 0.4, 0.2]","[u'black', u'red', u'blue']","[u'left', u'middle', u'right']","[0.8, 0.4, 0.2]","[u'medium', u'low', u'high']","black",49,"left","medium","True","False",259,5650,NA
"A23VWLX98JNB0Z","Wed Sep 30 2020 13:12:04 GMT-0500 (Central Daylight Time)","Wed Sep 30 2020 13:19:13 GMT-0500 (Central Daylight Time)","Mozilla/5.0 (Windows NT 10.0; Win64; x64) AppleWebKit/537.36 (KHTML, like Gecko) Chrome/85.0.4183.121 Safari/537.36",134,"[0.9, 0.5, 0.1]","[0.8, 0.4, 0.2]","[u'black', u'red', u'blue']","[u'left', u'middle', u'right']","[0.8, 0.4, 0.2]","[u'medium', u'low', u'high']","black",49,"left","medium","False","False",250,5600,NA
"A23VWLX98JNB0Z","Wed Sep 30 2020 13:12:04 GMT-0500 (Central Daylight Time)","Wed Sep 30 2020 13:19:13 GMT-0500 (Central Daylight Time)","Mozilla/5.0 (Windows NT 10.0; Win64; x64) AppleWebKit/537.36 (KHTML, like Gecko) Chrome/85.0.4183.121 Safari/537.36",135,"[0.9, 0.5, 0.1]","[0.8, 0.4, 0.2]","[u'black', u'red', u'blue']","[u'left', u'middle', u'right']","[0.8, 0.4, 0.2]","[u'medium', u'low', u'high']","black",49,"left","medium","False","False",291,5550,NA
"A23VWLX98JNB0Z","Wed Sep 30 2020 13:12:04 GMT-0500 (Central Daylight Time)","Wed Sep 30 2020 13:19:13 GMT-0500 (Central Daylight Time)","Mozilla/5.0 (Windows NT 10.0; Win64; x64) AppleWebKit/537.36 (KHTML, like Gecko) Chrome/85.0.4183.121 Safari/537.36",136,"[0.9, 0.5, 0.1]","[0.8, 0.4, 0.2]","[u'black', u'red', u'blue']","[u'left', u'middle', u'right']","[0.8, 0.4, 0.2]","[u'medium', u'low', u'high']","red",50,"middle","low","False","False",268,5500,NA
"A23VWLX98JNB0Z","Wed Sep 30 2020 13:12:04 GMT-0500 (Central Daylight Time)","Wed Sep 30 2020 13:19:13 GMT-0500 (Central Daylight Time)","Mozilla/5.0 (Windows NT 10.0; Win64; x64) AppleWebKit/537.36 (KHTML, like Gecko) Chrome/85.0.4183.121 Safari/537.36",137,"[0.9, 0.5, 0.1]","[0.8, 0.4, 0.2]","[u'black', u'red', u'blue']","[u'left', u'middle', u'right']","[0.8, 0.4, 0.2]","[u'medium', u'low', u'high']","red",50,"middle","low","False","False",170,5450,NA
"A23VWLX98JNB0Z","Wed Sep 30 2020 13:12:04 GMT-0500 (Central Daylight Time)","Wed Sep 30 2020 13:19:13 GMT-0500 (Central Daylight Time)","Mozilla/5.0 (Windows NT 10.0; Win64; x64) AppleWebKit/537.36 (KHTML, like Gecko) Chrome/85.0.4183.121 Safari/537.36",138,"[0.9, 0.5, 0.1]","[0.8, 0.4, 0.2]","[u'black', u'red', u'blue']","[u'left', u'middle', u'right']","[0.8, 0.4, 0.2]","[u'medium', u'low', u'high']","blue",51,"right","high","True","False",130,5550,NA
"A23VWLX98JNB0Z","Wed Sep 30 2020 13:12:04 GMT-0500 (Central Daylight Time)","Wed Sep 30 2020 13:19:13 GMT-0500 (Central Daylight Time)","Mozilla/5.0 (Windows NT 10.0; Win64; x64) AppleWebKit/537.36 (KHTML, like Gecko) Chrome/85.0.4183.121 Safari/537.36",139,"[0.9, 0.5, 0.1]","[0.8, 0.4, 0.2]","[u'black', u'red', u'blue']","[u'left', u'middle', u'right']","[0.8, 0.4, 0.2]","[u'medium', u'low', u'high']","blue",51,"right","high","True","False",259,5650,NA
"A23VWLX98JNB0Z","Wed Sep 30 2020 13:12:04 GMT-0500 (Central Daylight Time)","Wed Sep 30 2020 13:19:13 GMT-0500 (Central Daylight Time)","Mozilla/5.0 (Windows NT 10.0; Win64; x64) AppleWebKit/537.36 (KHTML, like Gecko) Chrome/85.0.4183.121 Safari/537.36",140,"[0.9, 0.5, 0.1]","[0.8, 0.4, 0.2]","[u'black', u'red', u'blue']","[u'left', u'middle', u'right']","[0.8, 0.4, 0.2]","[u'medium', u'low', u'high']","blue",51,"right","high","True","False",258,5750,NA
"A23VWLX98JNB0Z","Wed Sep 30 2020 13:12:04 GMT-0500 (Central Daylight Time)","Wed Sep 30 2020 13:19:13 GMT-0500 (Central Daylight Time)","Mozilla/5.0 (Windows NT 10.0; Win64; x64) AppleWebKit/537.36 (KHTML, like Gecko) Chrome/85.0.4183.121 Safari/537.36",141,"[0.9, 0.5, 0.1]","[0.8, 0.4, 0.2]","[u'black', u'red', u'blue']","[u'left', u'middle', u'right']","[0.8, 0.4, 0.2]","[u'medium', u'low', u'high']","blue",51,"right","high","True","False",235,5850,NA
"A23VWLX98JNB0Z","Wed Sep 30 2020 13:12:04 GMT-0500 (Central Daylight Time)","Wed Sep 30 2020 13:19:13 GMT-0500 (Central Daylight Time)","Mozilla/5.0 (Windows NT 10.0; Win64; x64) AppleWebKit/537.36 (KHTML, like Gecko) Chrome/85.0.4183.121 Safari/537.36",142,"[0.9, 0.5, 0.1]","[0.8, 0.4, 0.2]","[u'black', u'red', u'blue']","[u'left', u'middle', u'right']","[0.8, 0.4, 0.2]","[u'medium', u'low', u'high']","blue",51,"right","high","True","False",171,5950,NA
"A23VWLX98JNB0Z","Wed Sep 30 2020 13:12:04 GMT-0500 (Central Daylight Time)","Wed Sep 30 2020 13:19:13 GMT-0500 (Central Daylight Time)","Mozilla/5.0 (Windows NT 10.0; Win64; x64) AppleWebKit/537.36 (KHTML, like Gecko) Chrome/85.0.4183.121 Safari/537.36",143,"[0.9, 0.5, 0.1]","[0.8, 0.4, 0.2]","[u'black', u'red', u'blue']","[u'left', u'middle', u'right']","[0.8, 0.4, 0.2]","[u'medium', u'low', u'high']","blue",51,"right","high","True","False",282,6050,NA
"A23VWLX98JNB0Z","Wed Sep 30 2020 13:12:04 GMT-0500 (Central Daylight Time)","Wed Sep 30 2020 13:19:13 GMT-0500 (Central Daylight Time)","Mozilla/5.0 (Windows NT 10.0; Win64; x64) AppleWebKit/537.36 (KHTML, like Gecko) Chrome/85.0.4183.121 Safari/537.36",144,"[0.9, 0.5, 0.1]","[0.8, 0.4, 0.2]","[u'black', u'red', u'blue']","[u'left', u'middle', u'right']","[0.8, 0.4, 0.2]","[u'medium', u'low', u'high']","blue",51,"right","high","True","False",747,6150,NA
"A23VWLX98JNB0Z","Wed Sep 30 2020 13:12:04 GMT-0500 (Central Daylight Time)","Wed Sep 30 2020 13:19:13 GMT-0500 (Central Daylight Time)","Mozilla/5.0 (Windows NT 10.0; Win64; x64) AppleWebKit/537.36 (KHTML, like Gecko) Chrome/85.0.4183.121 Safari/537.36",145,"[0.9, 0.5, 0.1]","[0.8, 0.4, 0.2]","[u'black', u'red', u'blue']","[u'left', u'middle', u'right']","[0.8, 0.4, 0.2]","[u'medium', u'low', u'high']","blue",51,"right","high","True","False",258,6250,NA
"A23VWLX98JNB0Z","Wed Sep 30 2020 13:12:04 GMT-0500 (Central Daylight Time)","Wed Sep 30 2020 13:19:13 GMT-0500 (Central Daylight Time)","Mozilla/5.0 (Windows NT 10.0; Win64; x64) AppleWebKit/537.36 (KHTML, like Gecko) Chrome/85.0.4183.121 Safari/537.36",146,"[0.9, 0.5, 0.1]","[0.8, 0.4, 0.2]","[u'black', u'red', u'blue']","[u'left', u'middle', u'right']","[0.8, 0.4, 0.2]","[u'medium', u'low', u'high']","blue",51,"right","high","False","True",260,6200,NA
"A23VWLX98JNB0Z","Wed Sep 30 2020 13:12:04 GMT-0500 (Central Daylight Time)","Wed Sep 30 2020 13:19:13 GMT-0500 (Central Daylight Time)","Mozilla/5.0 (Windows NT 10.0; Win64; x64) AppleWebKit/537.36 (KHTML, like Gecko) Chrome/85.0.4183.121 Safari/537.36",147,"[0.9, 0.5, 0.1]","[0.8, 0.4, 0.2]","[u'black', u'red', u'blue']","[u'left', u'middle', u'right']","[0.8, 0.4, 0.2]","[u'medium', u'high', u'low']","blue",51,"right","low","False","False",201,6150,NA
"A23VWLX98JNB0Z","Wed Sep 30 2020 13:12:04 GMT-0500 (Central Daylight Time)","Wed Sep 30 2020 13:19:13 GMT-0500 (Central Daylight Time)","Mozilla/5.0 (Windows NT 10.0; Win64; x64) AppleWebKit/537.36 (KHTML, like Gecko) Chrome/85.0.4183.121 Safari/537.36",148,"[0.9, 0.5, 0.1]","[0.8, 0.4, 0.2]","[u'black', u'red', u'blue']","[u'left', u'middle', u'right']","[0.8, 0.4, 0.2]","[u'medium', u'high', u'low']","black",49,"left","medium","True","False",188,6250,NA
"A23VWLX98JNB0Z","Wed Sep 30 2020 13:12:04 GMT-0500 (Central Daylight Time)","Wed Sep 30 2020 13:19:13 GMT-0500 (Central Daylight Time)","Mozilla/5.0 (Windows NT 10.0; Win64; x64) AppleWebKit/537.36 (KHTML, like Gecko) Chrome/85.0.4183.121 Safari/537.36",149,"[0.9, 0.5, 0.1]","[0.8, 0.4, 0.2]","[u'black', u'red', u'blue']","[u'left', u'middle', u'right']","[0.8, 0.4, 0.2]","[u'medium', u'high', u'low']","black",49,"left","medium","False","False",306,6200,NA
"A23VWLX98JNB0Z","Wed Sep 30 2020 13:12:04 GMT-0500 (Central Daylight Time)","Wed Sep 30 2020 13:19:13 GMT-0500 (Central Daylight Time)","Mozilla/5.0 (Windows NT 10.0; Win64; x64) AppleWebKit/537.36 (KHTML, like Gecko) Chrome/85.0.4183.121 Safari/537.36",150,"[0.9, 0.5, 0.1]","[0.8, 0.4, 0.2]","[u'black', u'red', u'blue']","[u'left', u'middle', u'right']","[0.8, 0.4, 0.2]","[u'medium', u'high', u'low']","black",49,"left","medium","False","False",226,6150,NA
"A23VWLX98JNB0Z","Wed Sep 30 2020 13:12:04 GMT-0500 (Central Daylight Time)","Wed Sep 30 2020 13:19:13 GMT-0500 (Central Daylight Time)","Mozilla/5.0 (Windows NT 10.0; Win64; x64) AppleWebKit/537.36 (KHTML, like Gecko) Chrome/85.0.4183.121 Safari/537.36",151,"[0.9, 0.5, 0.1]","[0.8, 0.4, 0.2]","[u'black', u'red', u'blue']","[u'left', u'middle', u'right']","[0.8, 0.4, 0.2]","[u'medium', u'high', u'low']","red",50,"middle","high","True","False",123,6250,NA
"A23VWLX98JNB0Z","Wed Sep 30 2020 13:12:04 GMT-0500 (Central Daylight Time)","Wed Sep 30 2020 13:19:13 GMT-0500 (Central Daylight Time)","Mozilla/5.0 (Windows NT 10.0; Win64; x64) AppleWebKit/537.36 (KHTML, like Gecko) Chrome/85.0.4183.121 Safari/537.36",152,"[0.9, 0.5, 0.1]","[0.8, 0.4, 0.2]","[u'black', u'red', u'blue']","[u'left', u'middle', u'right']","[0.8, 0.4, 0.2]","[u'medium', u'high', u'low']","red",50,"middle","high","True","False",219,6350,NA
"A23VWLX98JNB0Z","Wed Sep 30 2020 13:12:04 GMT-0500 (Central Daylight Time)","Wed Sep 30 2020 13:19:13 GMT-0500 (Central Daylight Time)","Mozilla/5.0 (Windows NT 10.0; Win64; x64) AppleWebKit/537.36 (KHTML, like Gecko) Chrome/85.0.4183.121 Safari/537.36",153,"[0.9, 0.5, 0.1]","[0.8, 0.4, 0.2]","[u'black', u'red', u'blue']","[u'left', u'middle', u'right']","[0.8, 0.4, 0.2]","[u'medium', u'high', u'low']","red",50,"middle","high","True","False",227,6450,NA
"A23VWLX98JNB0Z","Wed Sep 30 2020 13:12:04 GMT-0500 (Central Daylight Time)","Wed Sep 30 2020 13:19:13 GMT-0500 (Central Daylight Time)","Mozilla/5.0 (Windows NT 10.0; Win64; x64) AppleWebKit/537.36 (KHTML, like Gecko) Chrome/85.0.4183.121 Safari/537.36",154,"[0.9, 0.5, 0.1]","[0.8, 0.4, 0.2]","[u'black', u'red', u'blue']","[u'left', u'middle', u'right']","[0.8, 0.4, 0.2]","[u'medium', u'high', u'low']","red",50,"middle","high","False","False",203,6400,NA
"A23VWLX98JNB0Z","Wed Sep 30 2020 13:12:04 GMT-0500 (Central Daylight Time)","Wed Sep 30 2020 13:19:13 GMT-0500 (Central Daylight Time)","Mozilla/5.0 (Windows NT 10.0; Win64; x64) AppleWebKit/537.36 (KHTML, like Gecko) Chrome/85.0.4183.121 Safari/537.36",155,"[0.9, 0.5, 0.1]","[0.8, 0.4, 0.2]","[u'black', u'red', u'blue']","[u'left', u'middle', u'right']","[0.8, 0.4, 0.2]","[u'medium', u'high', u'low']","red",50,"middle","high","True","False",185,6500,NA
"A23VWLX98JNB0Z","Wed Sep 30 2020 13:12:04 GMT-0500 (Central Daylight Time)","Wed Sep 30 2020 13:19:13 GMT-0500 (Central Daylight Time)","Mozilla/5.0 (Windows NT 10.0; Win64; x64) AppleWebKit/537.36 (KHTML, like Gecko) Chrome/85.0.4183.121 Safari/537.36",156,"[0.9, 0.5, 0.1]","[0.8, 0.4, 0.2]","[u'black', u'red', u'blue']","[u'left', u'middle', u'right']","[0.8, 0.4, 0.2]","[u'medium', u'high', u'low']","red",50,"middle","high","True","False",233,6600,NA
"A23VWLX98JNB0Z","Wed Sep 30 2020 13:12:04 GMT-0500 (Central Daylight Time)","Wed Sep 30 2020 13:19:13 GMT-0500 (Central Daylight Time)","Mozilla/5.0 (Windows NT 10.0; Win64; x64) AppleWebKit/537.36 (KHTML, like Gecko) Chrome/85.0.4183.121 Safari/537.36",157,"[0.9, 0.5, 0.1]","[0.8, 0.4, 0.2]","[u'black', u'red', u'blue']","[u'left', u'middle', u'right']","[0.8, 0.4, 0.2]","[u'medium', u'high', u'low']","red",50,"middle","high","True","False",258,6700,NA
"A23VWLX98JNB0Z","Wed Sep 30 2020 13:12:04 GMT-0500 (Central Daylight Time)","Wed Sep 30 2020 13:19:13 GMT-0500 (Central Daylight Time)","Mozilla/5.0 (Windows NT 10.0; Win64; x64) AppleWebKit/537.36 (KHTML, like Gecko) Chrome/85.0.4183.121 Safari/537.36",158,"[0.9, 0.5, 0.1]","[0.8, 0.4, 0.2]","[u'black', u'red', u'blue']","[u'left', u'middle', u'right']","[0.8, 0.4, 0.2]","[u'medium', u'high', u'low']","red",50,"middle","high","True","False",196,6800,NA
"A23VWLX98JNB0Z","Wed Sep 30 2020 13:12:04 GMT-0500 (Central Daylight Time)","Wed Sep 30 2020 13:19:13 GMT-0500 (Central Daylight Time)","Mozilla/5.0 (Windows NT 10.0; Win64; x64) AppleWebKit/537.36 (KHTML, like Gecko) Chrome/85.0.4183.121 Safari/537.36",159,"[0.9, 0.5, 0.1]","[0.8, 0.4, 0.2]","[u'black', u'red', u'blue']","[u'left', u'middle', u'right']","[0.8, 0.4, 0.2]","[u'medium', u'high', u'low']","red",50,"middle","high","True","True",187,6900,NA
"A23VWLX98JNB0Z","Wed Sep 30 2020 13:12:04 GMT-0500 (Central Daylight Time)","Wed Sep 30 2020 13:19:13 GMT-0500 (Central Daylight Time)","Mozilla/5.0 (Windows NT 10.0; Win64; x64) AppleWebKit/537.36 (KHTML, like Gecko) Chrome/85.0.4183.121 Safari/537.36",160,"[0.9, 0.5, 0.1]","[0.8, 0.4, 0.2]","[u'black', u'red', u'blue']","[u'left', u'middle', u'right']","[0.8, 0.4, 0.2]","[u'low', u'medium', u'high']","red",50,"middle","medium","False","False",124,6850,NA
