"src_subject_id","start_time","end_time","browser","index","first_half_probabilities","second_half_probabilities","deck_color","deck_position","deck_probabilities","deck_contingencies","response_color","key_press","response_position","response_probability","reward_type","trial_type","rt","reward_tally","exclusion_reason"
"AX9DKJZE40514","Wed Sep 30 2020 17:08:41 GMT-0400 (Eastern Daylight Time)","Wed Sep 30 2020 17:26:57 GMT-0400 (Eastern Daylight Time)","Mozilla/5.0 (Windows NT 10.0; WOW64) AppleWebKit/537.36 (KHTML, like Gecko) Chrome/83.0.4103.116 Safari/537.36",1,"[0.9, 0.5, 0.1]","[0.8, 0.4, 0.2]","[u'black', u'blue', u'red']","[u'left', u'middle', u'right']","[0.9, 0.5, 0.1]","[u'medium', u'low', u'high']","black",49,"left","medium","True","False",972,100,NA
"AX9DKJZE40514","Wed Sep 30 2020 17:08:41 GMT-0400 (Eastern Daylight Time)","Wed Sep 30 2020 17:26:57 GMT-0400 (Eastern Daylight Time)","Mozilla/5.0 (Windows NT 10.0; WOW64) AppleWebKit/537.36 (KHTML, like Gecko) Chrome/83.0.4103.116 Safari/537.36",2,"[0.9, 0.5, 0.1]","[0.8, 0.4, 0.2]","[u'black', u'blue', u'red']","[u'left', u'middle', u'right']","[0.9, 0.5, 0.1]","[u'medium', u'low', u'high']","blue",50,"middle","low","False","False",403,50,NA
"AX9DKJZE40514","Wed Sep 30 2020 17:08:41 GMT-0400 (Eastern Daylight Time)","Wed Sep 30 2020 17:26:57 GMT-0400 (Eastern Daylight Time)","Mozilla/5.0 (Windows NT 10.0; WOW64) AppleWebKit/537.36 (KHTML, like Gecko) Chrome/83.0.4103.116 Safari/537.36",3,"[0.9, 0.5, 0.1]","[0.8, 0.4, 0.2]","[u'black', u'blue', u'red']","[u'left', u'middle', u'right']","[0.9, 0.5, 0.1]","[u'medium', u'low', u'high']","red",51,"right","high","True","False",1499,150,NA
"AX9DKJZE40514","Wed Sep 30 2020 17:08:41 GMT-0400 (Eastern Daylight Time)","Wed Sep 30 2020 17:26:57 GMT-0400 (Eastern Daylight Time)","Mozilla/5.0 (Windows NT 10.0; WOW64) AppleWebKit/537.36 (KHTML, like Gecko) Chrome/83.0.4103.116 Safari/537.36",4,"[0.9, 0.5, 0.1]","[0.8, 0.4, 0.2]","[u'black', u'blue', u'red']","[u'left', u'middle', u'right']","[0.9, 0.5, 0.1]","[u'medium', u'low', u'high']","black",49,"left","medium","True","False",729,250,NA
"AX9DKJZE40514","Wed Sep 30 2020 17:08:41 GMT-0400 (Eastern Daylight Time)","Wed Sep 30 2020 17:26:57 GMT-0400 (Eastern Daylight Time)","Mozilla/5.0 (Windows NT 10.0; WOW64) AppleWebKit/537.36 (KHTML, like Gecko) Chrome/83.0.4103.116 Safari/537.36",5,"[0.9, 0.5, 0.1]","[0.8, 0.4, 0.2]","[u'black', u'blue', u'red']","[u'left', u'middle', u'right']","[0.9, 0.5, 0.1]","[u'medium', u'low', u'high']","red",51,"right","high","True","False",813,350,NA
"AX9DKJZE40514","Wed Sep 30 2020 17:08:41 GMT-0400 (Eastern Daylight Time)","Wed Sep 30 2020 17:26:57 GMT-0400 (Eastern Daylight Time)","Mozilla/5.0 (Windows NT 10.0; WOW64) AppleWebKit/537.36 (KHTML, like Gecko) Chrome/83.0.4103.116 Safari/537.36",6,"[0.9, 0.5, 0.1]","[0.8, 0.4, 0.2]","[u'black', u'blue', u'red']","[u'left', u'middle', u'right']","[0.9, 0.5, 0.1]","[u'medium', u'low', u'high']","black",49,"left","medium","True","False",1944,450,NA
"AX9DKJZE40514","Wed Sep 30 2020 17:08:41 GMT-0400 (Eastern Daylight Time)","Wed Sep 30 2020 17:26:57 GMT-0400 (Eastern Daylight Time)","Mozilla/5.0 (Windows NT 10.0; WOW64) AppleWebKit/537.36 (KHTML, like Gecko) Chrome/83.0.4103.116 Safari/537.36",7,"[0.9, 0.5, 0.1]","[0.8, 0.4, 0.2]","[u'black', u'blue', u'red']","[u'left', u'middle', u'right']","[0.9, 0.5, 0.1]","[u'medium', u'low', u'high']","red",51,"right","high","True","False",723,550,NA
"AX9DKJZE40514","Wed Sep 30 2020 17:08:41 GMT-0400 (Eastern Daylight Time)","Wed Sep 30 2020 17:26:57 GMT-0400 (Eastern Daylight Time)","Mozilla/5.0 (Windows NT 10.0; WOW64) AppleWebKit/537.36 (KHTML, like Gecko) Chrome/83.0.4103.116 Safari/537.36",8,"[0.9, 0.5, 0.1]","[0.8, 0.4, 0.2]","[u'black', u'blue', u'red']","[u'left', u'middle', u'right']","[0.9, 0.5, 0.1]","[u'medium', u'low', u'high']","black",49,"left","medium","True","False",741,650,NA
"AX9DKJZE40514","Wed Sep 30 2020 17:08:41 GMT-0400 (Eastern Daylight Time)","Wed Sep 30 2020 17:26:57 GMT-0400 (Eastern Daylight Time)","Mozilla/5.0 (Windows NT 10.0; WOW64) AppleWebKit/537.36 (KHTML, like Gecko) Chrome/83.0.4103.116 Safari/537.36",9,"[0.9, 0.5, 0.1]","[0.8, 0.4, 0.2]","[u'black', u'blue', u'red']","[u'left', u'middle', u'right']","[0.9, 0.5, 0.1]","[u'medium', u'low', u'high']","red",51,"right","high","True","False",883,750,NA
"AX9DKJZE40514","Wed Sep 30 2020 17:08:41 GMT-0400 (Eastern Daylight Time)","Wed Sep 30 2020 17:26:57 GMT-0400 (Eastern Daylight Time)","Mozilla/5.0 (Windows NT 10.0; WOW64) AppleWebKit/537.36 (KHTML, like Gecko) Chrome/83.0.4103.116 Safari/537.36",10,"[0.9, 0.5, 0.1]","[0.8, 0.4, 0.2]","[u'black', u'blue', u'red']","[u'left', u'middle', u'right']","[0.9, 0.5, 0.1]","[u'medium', u'low', u'high']","black",49,"left","medium","False","False",579,700,NA
"AX9DKJZE40514","Wed Sep 30 2020 17:08:41 GMT-0400 (Eastern Daylight Time)","Wed Sep 30 2020 17:26:57 GMT-0400 (Eastern Daylight Time)","Mozilla/5.0 (Windows NT 10.0; WOW64) AppleWebKit/537.36 (KHTML, like Gecko) Chrome/83.0.4103.116 Safari/537.36",11,"[0.9, 0.5, 0.1]","[0.8, 0.4, 0.2]","[u'black', u'blue', u'red']","[u'left', u'middle', u'right']","[0.9, 0.5, 0.1]","[u'medium', u'low', u'high']","blue",50,"middle","low","False","False",1695,650,NA
"AX9DKJZE40514","Wed Sep 30 2020 17:08:41 GMT-0400 (Eastern Daylight Time)","Wed Sep 30 2020 17:26:57 GMT-0400 (Eastern Daylight Time)","Mozilla/5.0 (Windows NT 10.0; WOW64) AppleWebKit/537.36 (KHTML, like Gecko) Chrome/83.0.4103.116 Safari/537.36",12,"[0.9, 0.5, 0.1]","[0.8, 0.4, 0.2]","[u'black', u'blue', u'red']","[u'left', u'middle', u'right']","[0.9, 0.5, 0.1]","[u'medium', u'low', u'high']","red",51,"right","high","True","False",797,750,NA
"AX9DKJZE40514","Wed Sep 30 2020 17:08:41 GMT-0400 (Eastern Daylight Time)","Wed Sep 30 2020 17:26:57 GMT-0400 (Eastern Daylight Time)","Mozilla/5.0 (Windows NT 10.0; WOW64) AppleWebKit/537.36 (KHTML, like Gecko) Chrome/83.0.4103.116 Safari/537.36",13,"[0.9, 0.5, 0.1]","[0.8, 0.4, 0.2]","[u'black', u'blue', u'red']","[u'left', u'middle', u'right']","[0.9, 0.5, 0.1]","[u'medium', u'low', u'high']","black",49,"left","medium","False","False",626,700,NA
"AX9DKJZE40514","Wed Sep 30 2020 17:08:41 GMT-0400 (Eastern Daylight Time)","Wed Sep 30 2020 17:26:57 GMT-0400 (Eastern Daylight Time)","Mozilla/5.0 (Windows NT 10.0; WOW64) AppleWebKit/537.36 (KHTML, like Gecko) Chrome/83.0.4103.116 Safari/537.36",14,"[0.9, 0.5, 0.1]","[0.8, 0.4, 0.2]","[u'black', u'blue', u'red']","[u'left', u'middle', u'right']","[0.9, 0.5, 0.1]","[u'medium', u'low', u'high']","blue",50,"middle","low","False","False",1168,650,NA
"AX9DKJZE40514","Wed Sep 30 2020 17:08:41 GMT-0400 (Eastern Daylight Time)","Wed Sep 30 2020 17:26:57 GMT-0400 (Eastern Daylight Time)","Mozilla/5.0 (Windows NT 10.0; WOW64) AppleWebKit/537.36 (KHTML, like Gecko) Chrome/83.0.4103.116 Safari/537.36",15,"[0.9, 0.5, 0.1]","[0.8, 0.4, 0.2]","[u'black', u'blue', u'red']","[u'left', u'middle', u'right']","[0.9, 0.5, 0.1]","[u'medium', u'low', u'high']","red",51,"right","high","True","False",615,750,NA
"AX9DKJZE40514","Wed Sep 30 2020 17:08:41 GMT-0400 (Eastern Daylight Time)","Wed Sep 30 2020 17:26:57 GMT-0400 (Eastern Daylight Time)","Mozilla/5.0 (Windows NT 10.0; WOW64) AppleWebKit/537.36 (KHTML, like Gecko) Chrome/83.0.4103.116 Safari/537.36",16,"[0.9, 0.5, 0.1]","[0.8, 0.4, 0.2]","[u'black', u'blue', u'red']","[u'left', u'middle', u'right']","[0.9, 0.5, 0.1]","[u'medium', u'low', u'high']","red",51,"right","high","True","False",851,850,NA
"AX9DKJZE40514","Wed Sep 30 2020 17:08:41 GMT-0400 (Eastern Daylight Time)","Wed Sep 30 2020 17:26:57 GMT-0400 (Eastern Daylight Time)","Mozilla/5.0 (Windows NT 10.0; WOW64) AppleWebKit/537.36 (KHTML, like Gecko) Chrome/83.0.4103.116 Safari/537.36",17,"[0.9, 0.5, 0.1]","[0.8, 0.4, 0.2]","[u'black', u'blue', u'red']","[u'left', u'middle', u'right']","[0.9, 0.5, 0.1]","[u'medium', u'low', u'high']","red",51,"right","high","True","False",906,950,NA
"AX9DKJZE40514","Wed Sep 30 2020 17:08:41 GMT-0400 (Eastern Daylight Time)","Wed Sep 30 2020 17:26:57 GMT-0400 (Eastern Daylight Time)","Mozilla/5.0 (Windows NT 10.0; WOW64) AppleWebKit/537.36 (KHTML, like Gecko) Chrome/83.0.4103.116 Safari/537.36",18,"[0.9, 0.5, 0.1]","[0.8, 0.4, 0.2]","[u'black', u'blue', u'red']","[u'left', u'middle', u'right']","[0.9, 0.5, 0.1]","[u'medium', u'low', u'high']","red",51,"right","high","True","False",626,1050,NA
"AX9DKJZE40514","Wed Sep 30 2020 17:08:41 GMT-0400 (Eastern Daylight Time)","Wed Sep 30 2020 17:26:57 GMT-0400 (Eastern Daylight Time)","Mozilla/5.0 (Windows NT 10.0; WOW64) AppleWebKit/537.36 (KHTML, like Gecko) Chrome/83.0.4103.116 Safari/537.36",19,"[0.9, 0.5, 0.1]","[0.8, 0.4, 0.2]","[u'black', u'blue', u'red']","[u'left', u'middle', u'right']","[0.9, 0.5, 0.1]","[u'medium', u'low', u'high']","red",51,"right","high","True","False",943,1150,NA
"AX9DKJZE40514","Wed Sep 30 2020 17:08:41 GMT-0400 (Eastern Daylight Time)","Wed Sep 30 2020 17:26:57 GMT-0400 (Eastern Daylight Time)","Mozilla/5.0 (Windows NT 10.0; WOW64) AppleWebKit/537.36 (KHTML, like Gecko) Chrome/83.0.4103.116 Safari/537.36",20,"[0.9, 0.5, 0.1]","[0.8, 0.4, 0.2]","[u'black', u'blue', u'red']","[u'left', u'middle', u'right']","[0.9, 0.5, 0.1]","[u'medium', u'low', u'high']","red",51,"right","high","True","False",851,1250,NA
"AX9DKJZE40514","Wed Sep 30 2020 17:08:41 GMT-0400 (Eastern Daylight Time)","Wed Sep 30 2020 17:26:57 GMT-0400 (Eastern Daylight Time)","Mozilla/5.0 (Windows NT 10.0; WOW64) AppleWebKit/537.36 (KHTML, like Gecko) Chrome/83.0.4103.116 Safari/537.36",21,"[0.9, 0.5, 0.1]","[0.8, 0.4, 0.2]","[u'black', u'blue', u'red']","[u'left', u'middle', u'right']","[0.9, 0.5, 0.1]","[u'medium', u'low', u'high']","red",51,"right","high","True","False",981,1350,NA
"AX9DKJZE40514","Wed Sep 30 2020 17:08:41 GMT-0400 (Eastern Daylight Time)","Wed Sep 30 2020 17:26:57 GMT-0400 (Eastern Daylight Time)","Mozilla/5.0 (Windows NT 10.0; WOW64) AppleWebKit/537.36 (KHTML, like Gecko) Chrome/83.0.4103.116 Safari/537.36",22,"[0.9, 0.5, 0.1]","[0.8, 0.4, 0.2]","[u'black', u'blue', u'red']","[u'left', u'middle', u'right']","[0.9, 0.5, 0.1]","[u'medium', u'low', u'high']","red",51,"right","high","False","False",706,1300,NA
"AX9DKJZE40514","Wed Sep 30 2020 17:08:41 GMT-0400 (Eastern Daylight Time)","Wed Sep 30 2020 17:26:57 GMT-0400 (Eastern Daylight Time)","Mozilla/5.0 (Windows NT 10.0; WOW64) AppleWebKit/537.36 (KHTML, like Gecko) Chrome/83.0.4103.116 Safari/537.36",23,"[0.9, 0.5, 0.1]","[0.8, 0.4, 0.2]","[u'black', u'blue', u'red']","[u'left', u'middle', u'right']","[0.9, 0.5, 0.1]","[u'medium', u'low', u'high']","black",49,"left","medium","False","False",1275,1250,NA
"AX9DKJZE40514","Wed Sep 30 2020 17:08:41 GMT-0400 (Eastern Daylight Time)","Wed Sep 30 2020 17:26:57 GMT-0400 (Eastern Daylight Time)","Mozilla/5.0 (Windows NT 10.0; WOW64) AppleWebKit/537.36 (KHTML, like Gecko) Chrome/83.0.4103.116 Safari/537.36",24,"[0.9, 0.5, 0.1]","[0.8, 0.4, 0.2]","[u'black', u'blue', u'red']","[u'left', u'middle', u'right']","[0.9, 0.5, 0.1]","[u'medium', u'low', u'high']","blue",50,"middle","low","False","False",785,1200,NA
"AX9DKJZE40514","Wed Sep 30 2020 17:08:41 GMT-0400 (Eastern Daylight Time)","Wed Sep 30 2020 17:26:57 GMT-0400 (Eastern Daylight Time)","Mozilla/5.0 (Windows NT 10.0; WOW64) AppleWebKit/537.36 (KHTML, like Gecko) Chrome/83.0.4103.116 Safari/537.36",25,"[0.9, 0.5, 0.1]","[0.8, 0.4, 0.2]","[u'black', u'blue', u'red']","[u'left', u'middle', u'right']","[0.9, 0.5, 0.1]","[u'medium', u'low', u'high']","red",51,"right","high","True","False",722,1300,NA
"AX9DKJZE40514","Wed Sep 30 2020 17:08:41 GMT-0400 (Eastern Daylight Time)","Wed Sep 30 2020 17:26:57 GMT-0400 (Eastern Daylight Time)","Mozilla/5.0 (Windows NT 10.0; WOW64) AppleWebKit/537.36 (KHTML, like Gecko) Chrome/83.0.4103.116 Safari/537.36",26,"[0.9, 0.5, 0.1]","[0.8, 0.4, 0.2]","[u'black', u'blue', u'red']","[u'left', u'middle', u'right']","[0.9, 0.5, 0.1]","[u'medium', u'low', u'high']","red",51,"right","high","False","False",565,1250,NA
"AX9DKJZE40514","Wed Sep 30 2020 17:08:41 GMT-0400 (Eastern Daylight Time)","Wed Sep 30 2020 17:26:57 GMT-0400 (Eastern Daylight Time)","Mozilla/5.0 (Windows NT 10.0; WOW64) AppleWebKit/537.36 (KHTML, like Gecko) Chrome/83.0.4103.116 Safari/537.36",27,"[0.9, 0.5, 0.1]","[0.8, 0.4, 0.2]","[u'black', u'blue', u'red']","[u'left', u'middle', u'right']","[0.9, 0.5, 0.1]","[u'medium', u'low', u'high']","blue",50,"middle","low","False","False",681,1200,NA
"AX9DKJZE40514","Wed Sep 30 2020 17:08:41 GMT-0400 (Eastern Daylight Time)","Wed Sep 30 2020 17:26:57 GMT-0400 (Eastern Daylight Time)","Mozilla/5.0 (Windows NT 10.0; WOW64) AppleWebKit/537.36 (KHTML, like Gecko) Chrome/83.0.4103.116 Safari/537.36",28,"[0.9, 0.5, 0.1]","[0.8, 0.4, 0.2]","[u'black', u'blue', u'red']","[u'left', u'middle', u'right']","[0.9, 0.5, 0.1]","[u'medium', u'low', u'high']","black",49,"left","medium","True","False",558,1300,NA
"AX9DKJZE40514","Wed Sep 30 2020 17:08:41 GMT-0400 (Eastern Daylight Time)","Wed Sep 30 2020 17:26:57 GMT-0400 (Eastern Daylight Time)","Mozilla/5.0 (Windows NT 10.0; WOW64) AppleWebKit/537.36 (KHTML, like Gecko) Chrome/83.0.4103.116 Safari/537.36",29,"[0.9, 0.5, 0.1]","[0.8, 0.4, 0.2]","[u'black', u'blue', u'red']","[u'left', u'middle', u'right']","[0.9, 0.5, 0.1]","[u'medium', u'low', u'high']","blue",50,"middle","low","False","False",1445,1250,NA
"AX9DKJZE40514","Wed Sep 30 2020 17:08:41 GMT-0400 (Eastern Daylight Time)","Wed Sep 30 2020 17:26:57 GMT-0400 (Eastern Daylight Time)","Mozilla/5.0 (Windows NT 10.0; WOW64) AppleWebKit/537.36 (KHTML, like Gecko) Chrome/83.0.4103.116 Safari/537.36",30,"[0.9, 0.5, 0.1]","[0.8, 0.4, 0.2]","[u'black', u'blue', u'red']","[u'left', u'middle', u'right']","[0.9, 0.5, 0.1]","[u'medium', u'low', u'high']","black",49,"left","medium","True","False",1017,1350,NA
"AX9DKJZE40514","Wed Sep 30 2020 17:08:41 GMT-0400 (Eastern Daylight Time)","Wed Sep 30 2020 17:26:57 GMT-0400 (Eastern Daylight Time)","Mozilla/5.0 (Windows NT 10.0; WOW64) AppleWebKit/537.36 (KHTML, like Gecko) Chrome/83.0.4103.116 Safari/537.36",31,"[0.9, 0.5, 0.1]","[0.8, 0.4, 0.2]","[u'black', u'blue', u'red']","[u'left', u'middle', u'right']","[0.9, 0.5, 0.1]","[u'medium', u'low', u'high']","black",49,"left","medium","True","False",1080,1450,NA
"AX9DKJZE40514","Wed Sep 30 2020 17:08:41 GMT-0400 (Eastern Daylight Time)","Wed Sep 30 2020 17:26:57 GMT-0400 (Eastern Daylight Time)","Mozilla/5.0 (Windows NT 10.0; WOW64) AppleWebKit/537.36 (KHTML, like Gecko) Chrome/83.0.4103.116 Safari/537.36",32,"[0.9, 0.5, 0.1]","[0.8, 0.4, 0.2]","[u'black', u'blue', u'red']","[u'left', u'middle', u'right']","[0.9, 0.5, 0.1]","[u'medium', u'low', u'high']","black",49,"left","medium","True","False",900,1550,NA
"AX9DKJZE40514","Wed Sep 30 2020 17:08:41 GMT-0400 (Eastern Daylight Time)","Wed Sep 30 2020 17:26:57 GMT-0400 (Eastern Daylight Time)","Mozilla/5.0 (Windows NT 10.0; WOW64) AppleWebKit/537.36 (KHTML, like Gecko) Chrome/83.0.4103.116 Safari/537.36",33,"[0.9, 0.5, 0.1]","[0.8, 0.4, 0.2]","[u'black', u'blue', u'red']","[u'left', u'middle', u'right']","[0.9, 0.5, 0.1]","[u'medium', u'low', u'high']","black",49,"left","medium","False","False",597,1500,NA
"AX9DKJZE40514","Wed Sep 30 2020 17:08:41 GMT-0400 (Eastern Daylight Time)","Wed Sep 30 2020 17:26:57 GMT-0400 (Eastern Daylight Time)","Mozilla/5.0 (Windows NT 10.0; WOW64) AppleWebKit/537.36 (KHTML, like Gecko) Chrome/83.0.4103.116 Safari/537.36",34,"[0.9, 0.5, 0.1]","[0.8, 0.4, 0.2]","[u'black', u'blue', u'red']","[u'left', u'middle', u'right']","[0.9, 0.5, 0.1]","[u'medium', u'low', u'high']","blue",50,"middle","low","False","False",829,1450,NA
"AX9DKJZE40514","Wed Sep 30 2020 17:08:41 GMT-0400 (Eastern Daylight Time)","Wed Sep 30 2020 17:26:57 GMT-0400 (Eastern Daylight Time)","Mozilla/5.0 (Windows NT 10.0; WOW64) AppleWebKit/537.36 (KHTML, like Gecko) Chrome/83.0.4103.116 Safari/537.36",35,"[0.9, 0.5, 0.1]","[0.8, 0.4, 0.2]","[u'black', u'blue', u'red']","[u'left', u'middle', u'right']","[0.9, 0.5, 0.1]","[u'medium', u'low', u'high']","red",51,"right","high","True","False",781,1550,NA
"AX9DKJZE40514","Wed Sep 30 2020 17:08:41 GMT-0400 (Eastern Daylight Time)","Wed Sep 30 2020 17:26:57 GMT-0400 (Eastern Daylight Time)","Mozilla/5.0 (Windows NT 10.0; WOW64) AppleWebKit/537.36 (KHTML, like Gecko) Chrome/83.0.4103.116 Safari/537.36",36,"[0.9, 0.5, 0.1]","[0.8, 0.4, 0.2]","[u'black', u'blue', u'red']","[u'left', u'middle', u'right']","[0.9, 0.5, 0.1]","[u'medium', u'low', u'high']","red",51,"right","high","True","False",438,1650,NA
"AX9DKJZE40514","Wed Sep 30 2020 17:08:41 GMT-0400 (Eastern Daylight Time)","Wed Sep 30 2020 17:26:57 GMT-0400 (Eastern Daylight Time)","Mozilla/5.0 (Windows NT 10.0; WOW64) AppleWebKit/537.36 (KHTML, like Gecko) Chrome/83.0.4103.116 Safari/537.36",37,"[0.9, 0.5, 0.1]","[0.8, 0.4, 0.2]","[u'black', u'blue', u'red']","[u'left', u'middle', u'right']","[0.9, 0.5, 0.1]","[u'medium', u'low', u'high']","red",51,"right","high","True","False",1303,1750,NA
"AX9DKJZE40514","Wed Sep 30 2020 17:08:41 GMT-0400 (Eastern Daylight Time)","Wed Sep 30 2020 17:26:57 GMT-0400 (Eastern Daylight Time)","Mozilla/5.0 (Windows NT 10.0; WOW64) AppleWebKit/537.36 (KHTML, like Gecko) Chrome/83.0.4103.116 Safari/537.36",38,"[0.9, 0.5, 0.1]","[0.8, 0.4, 0.2]","[u'black', u'blue', u'red']","[u'left', u'middle', u'right']","[0.9, 0.5, 0.1]","[u'medium', u'low', u'high']","black",49,"left","medium","True","False",1189,1850,NA
"AX9DKJZE40514","Wed Sep 30 2020 17:08:41 GMT-0400 (Eastern Daylight Time)","Wed Sep 30 2020 17:26:57 GMT-0400 (Eastern Daylight Time)","Mozilla/5.0 (Windows NT 10.0; WOW64) AppleWebKit/537.36 (KHTML, like Gecko) Chrome/83.0.4103.116 Safari/537.36",39,"[0.9, 0.5, 0.1]","[0.8, 0.4, 0.2]","[u'black', u'blue', u'red']","[u'left', u'middle', u'right']","[0.9, 0.5, 0.1]","[u'medium', u'low', u'high']","black",49,"left","medium","False","False",870,1800,NA
"AX9DKJZE40514","Wed Sep 30 2020 17:08:41 GMT-0400 (Eastern Daylight Time)","Wed Sep 30 2020 17:26:57 GMT-0400 (Eastern Daylight Time)","Mozilla/5.0 (Windows NT 10.0; WOW64) AppleWebKit/537.36 (KHTML, like Gecko) Chrome/83.0.4103.116 Safari/537.36",40,"[0.9, 0.5, 0.1]","[0.8, 0.4, 0.2]","[u'black', u'blue', u'red']","[u'left', u'middle', u'right']","[0.9, 0.5, 0.1]","[u'medium', u'low', u'high']","blue",50,"middle","low","False","False",760,1750,NA
"AX9DKJZE40514","Wed Sep 30 2020 17:08:41 GMT-0400 (Eastern Daylight Time)","Wed Sep 30 2020 17:26:57 GMT-0400 (Eastern Daylight Time)","Mozilla/5.0 (Windows NT 10.0; WOW64) AppleWebKit/537.36 (KHTML, like Gecko) Chrome/83.0.4103.116 Safari/537.36",41,"[0.9, 0.5, 0.1]","[0.8, 0.4, 0.2]","[u'black', u'blue', u'red']","[u'left', u'middle', u'right']","[0.9, 0.5, 0.1]","[u'medium', u'high', u'low']","blue",50,"middle","high","True","False",1535,1850,NA
"AX9DKJZE40514","Wed Sep 30 2020 17:08:41 GMT-0400 (Eastern Daylight Time)","Wed Sep 30 2020 17:26:57 GMT-0400 (Eastern Daylight Time)","Mozilla/5.0 (Windows NT 10.0; WOW64) AppleWebKit/537.36 (KHTML, like Gecko) Chrome/83.0.4103.116 Safari/537.36",42,"[0.9, 0.5, 0.1]","[0.8, 0.4, 0.2]","[u'black', u'blue', u'red']","[u'left', u'middle', u'right']","[0.9, 0.5, 0.1]","[u'medium', u'high', u'low']","blue",50,"middle","high","True","False",832,1950,NA
"AX9DKJZE40514","Wed Sep 30 2020 17:08:41 GMT-0400 (Eastern Daylight Time)","Wed Sep 30 2020 17:26:57 GMT-0400 (Eastern Daylight Time)","Mozilla/5.0 (Windows NT 10.0; WOW64) AppleWebKit/537.36 (KHTML, like Gecko) Chrome/83.0.4103.116 Safari/537.36",43,"[0.9, 0.5, 0.1]","[0.8, 0.4, 0.2]","[u'black', u'blue', u'red']","[u'left', u'middle', u'right']","[0.9, 0.5, 0.1]","[u'medium', u'high', u'low']","red",51,"right","low","False","False",614,1900,NA
"AX9DKJZE40514","Wed Sep 30 2020 17:08:41 GMT-0400 (Eastern Daylight Time)","Wed Sep 30 2020 17:26:57 GMT-0400 (Eastern Daylight Time)","Mozilla/5.0 (Windows NT 10.0; WOW64) AppleWebKit/537.36 (KHTML, like Gecko) Chrome/83.0.4103.116 Safari/537.36",44,"[0.9, 0.5, 0.1]","[0.8, 0.4, 0.2]","[u'black', u'blue', u'red']","[u'left', u'middle', u'right']","[0.9, 0.5, 0.1]","[u'medium', u'high', u'low']","red",51,"right","low","False","False",833,1850,NA
"AX9DKJZE40514","Wed Sep 30 2020 17:08:41 GMT-0400 (Eastern Daylight Time)","Wed Sep 30 2020 17:26:57 GMT-0400 (Eastern Daylight Time)","Mozilla/5.0 (Windows NT 10.0; WOW64) AppleWebKit/537.36 (KHTML, like Gecko) Chrome/83.0.4103.116 Safari/537.36",45,"[0.9, 0.5, 0.1]","[0.8, 0.4, 0.2]","[u'black', u'blue', u'red']","[u'left', u'middle', u'right']","[0.9, 0.5, 0.1]","[u'medium', u'high', u'low']","black",49,"left","medium","False","False",725,1800,NA
"AX9DKJZE40514","Wed Sep 30 2020 17:08:41 GMT-0400 (Eastern Daylight Time)","Wed Sep 30 2020 17:26:57 GMT-0400 (Eastern Daylight Time)","Mozilla/5.0 (Windows NT 10.0; WOW64) AppleWebKit/537.36 (KHTML, like Gecko) Chrome/83.0.4103.116 Safari/537.36",46,"[0.9, 0.5, 0.1]","[0.8, 0.4, 0.2]","[u'black', u'blue', u'red']","[u'left', u'middle', u'right']","[0.9, 0.5, 0.1]","[u'medium', u'high', u'low']","red",51,"right","low","False","False",641,1750,NA
"AX9DKJZE40514","Wed Sep 30 2020 17:08:41 GMT-0400 (Eastern Daylight Time)","Wed Sep 30 2020 17:26:57 GMT-0400 (Eastern Daylight Time)","Mozilla/5.0 (Windows NT 10.0; WOW64) AppleWebKit/537.36 (KHTML, like Gecko) Chrome/83.0.4103.116 Safari/537.36",47,"[0.9, 0.5, 0.1]","[0.8, 0.4, 0.2]","[u'black', u'blue', u'red']","[u'left', u'middle', u'right']","[0.9, 0.5, 0.1]","[u'medium', u'high', u'low']","blue",50,"middle","high","True","False",478,1850,NA
"AX9DKJZE40514","Wed Sep 30 2020 17:08:41 GMT-0400 (Eastern Daylight Time)","Wed Sep 30 2020 17:26:57 GMT-0400 (Eastern Daylight Time)","Mozilla/5.0 (Windows NT 10.0; WOW64) AppleWebKit/537.36 (KHTML, like Gecko) Chrome/83.0.4103.116 Safari/537.36",48,"[0.9, 0.5, 0.1]","[0.8, 0.4, 0.2]","[u'black', u'blue', u'red']","[u'left', u'middle', u'right']","[0.9, 0.5, 0.1]","[u'medium', u'high', u'low']","blue",50,"middle","high","True","False",618,1950,NA
"AX9DKJZE40514","Wed Sep 30 2020 17:08:41 GMT-0400 (Eastern Daylight Time)","Wed Sep 30 2020 17:26:57 GMT-0400 (Eastern Daylight Time)","Mozilla/5.0 (Windows NT 10.0; WOW64) AppleWebKit/537.36 (KHTML, like Gecko) Chrome/83.0.4103.116 Safari/537.36",49,"[0.9, 0.5, 0.1]","[0.8, 0.4, 0.2]","[u'black', u'blue', u'red']","[u'left', u'middle', u'right']","[0.9, 0.5, 0.1]","[u'medium', u'high', u'low']","blue",50,"middle","high","True","False",934,2050,NA
"AX9DKJZE40514","Wed Sep 30 2020 17:08:41 GMT-0400 (Eastern Daylight Time)","Wed Sep 30 2020 17:26:57 GMT-0400 (Eastern Daylight Time)","Mozilla/5.0 (Windows NT 10.0; WOW64) AppleWebKit/537.36 (KHTML, like Gecko) Chrome/83.0.4103.116 Safari/537.36",50,"[0.9, 0.5, 0.1]","[0.8, 0.4, 0.2]","[u'black', u'blue', u'red']","[u'left', u'middle', u'right']","[0.9, 0.5, 0.1]","[u'medium', u'high', u'low']","red",51,"right","low","False","False",872,2000,NA
"AX9DKJZE40514","Wed Sep 30 2020 17:08:41 GMT-0400 (Eastern Daylight Time)","Wed Sep 30 2020 17:26:57 GMT-0400 (Eastern Daylight Time)","Mozilla/5.0 (Windows NT 10.0; WOW64) AppleWebKit/537.36 (KHTML, like Gecko) Chrome/83.0.4103.116 Safari/537.36",51,"[0.9, 0.5, 0.1]","[0.8, 0.4, 0.2]","[u'black', u'blue', u'red']","[u'left', u'middle', u'right']","[0.9, 0.5, 0.1]","[u'medium', u'high', u'low']","blue",50,"middle","high","True","False",839,2100,NA
"AX9DKJZE40514","Wed Sep 30 2020 17:08:41 GMT-0400 (Eastern Daylight Time)","Wed Sep 30 2020 17:26:57 GMT-0400 (Eastern Daylight Time)","Mozilla/5.0 (Windows NT 10.0; WOW64) AppleWebKit/537.36 (KHTML, like Gecko) Chrome/83.0.4103.116 Safari/537.36",52,"[0.9, 0.5, 0.1]","[0.8, 0.4, 0.2]","[u'black', u'blue', u'red']","[u'left', u'middle', u'right']","[0.9, 0.5, 0.1]","[u'medium', u'high', u'low']","blue",50,"middle","high","True","False",715,2200,NA
"AX9DKJZE40514","Wed Sep 30 2020 17:08:41 GMT-0400 (Eastern Daylight Time)","Wed Sep 30 2020 17:26:57 GMT-0400 (Eastern Daylight Time)","Mozilla/5.0 (Windows NT 10.0; WOW64) AppleWebKit/537.36 (KHTML, like Gecko) Chrome/83.0.4103.116 Safari/537.36",53,"[0.9, 0.5, 0.1]","[0.8, 0.4, 0.2]","[u'black', u'blue', u'red']","[u'left', u'middle', u'right']","[0.9, 0.5, 0.1]","[u'medium', u'high', u'low']","blue",50,"middle","high","True","False",732,2300,NA
"AX9DKJZE40514","Wed Sep 30 2020 17:08:41 GMT-0400 (Eastern Daylight Time)","Wed Sep 30 2020 17:26:57 GMT-0400 (Eastern Daylight Time)","Mozilla/5.0 (Windows NT 10.0; WOW64) AppleWebKit/537.36 (KHTML, like Gecko) Chrome/83.0.4103.116 Safari/537.36",54,"[0.9, 0.5, 0.1]","[0.8, 0.4, 0.2]","[u'black', u'blue', u'red']","[u'left', u'middle', u'right']","[0.9, 0.5, 0.1]","[u'medium', u'high', u'low']","blue",50,"middle","high","True","False",1920,2400,NA
"AX9DKJZE40514","Wed Sep 30 2020 17:08:41 GMT-0400 (Eastern Daylight Time)","Wed Sep 30 2020 17:26:57 GMT-0400 (Eastern Daylight Time)","Mozilla/5.0 (Windows NT 10.0; WOW64) AppleWebKit/537.36 (KHTML, like Gecko) Chrome/83.0.4103.116 Safari/537.36",55,"[0.9, 0.5, 0.1]","[0.8, 0.4, 0.2]","[u'black', u'blue', u'red']","[u'left', u'middle', u'right']","[0.9, 0.5, 0.1]","[u'medium', u'high', u'low']","blue",50,"middle","high","False","False",815,2350,NA
"AX9DKJZE40514","Wed Sep 30 2020 17:08:41 GMT-0400 (Eastern Daylight Time)","Wed Sep 30 2020 17:26:57 GMT-0400 (Eastern Daylight Time)","Mozilla/5.0 (Windows NT 10.0; WOW64) AppleWebKit/537.36 (KHTML, like Gecko) Chrome/83.0.4103.116 Safari/537.36",56,"[0.9, 0.5, 0.1]","[0.8, 0.4, 0.2]","[u'black', u'blue', u'red']","[u'left', u'middle', u'right']","[0.9, 0.5, 0.1]","[u'medium', u'high', u'low']","black",49,"left","medium","False","False",839,2300,NA
"AX9DKJZE40514","Wed Sep 30 2020 17:08:41 GMT-0400 (Eastern Daylight Time)","Wed Sep 30 2020 17:26:57 GMT-0400 (Eastern Daylight Time)","Mozilla/5.0 (Windows NT 10.0; WOW64) AppleWebKit/537.36 (KHTML, like Gecko) Chrome/83.0.4103.116 Safari/537.36",57,"[0.9, 0.5, 0.1]","[0.8, 0.4, 0.2]","[u'black', u'blue', u'red']","[u'left', u'middle', u'right']","[0.9, 0.5, 0.1]","[u'medium', u'high', u'low']","red",51,"right","low","False","False",539,2250,NA
"AX9DKJZE40514","Wed Sep 30 2020 17:08:41 GMT-0400 (Eastern Daylight Time)","Wed Sep 30 2020 17:26:57 GMT-0400 (Eastern Daylight Time)","Mozilla/5.0 (Windows NT 10.0; WOW64) AppleWebKit/537.36 (KHTML, like Gecko) Chrome/83.0.4103.116 Safari/537.36",58,"[0.9, 0.5, 0.1]","[0.8, 0.4, 0.2]","[u'black', u'blue', u'red']","[u'left', u'middle', u'right']","[0.9, 0.5, 0.1]","[u'medium', u'high', u'low']","blue",50,"middle","high","True","False",334,2350,NA
"AX9DKJZE40514","Wed Sep 30 2020 17:08:41 GMT-0400 (Eastern Daylight Time)","Wed Sep 30 2020 17:26:57 GMT-0400 (Eastern Daylight Time)","Mozilla/5.0 (Windows NT 10.0; WOW64) AppleWebKit/537.36 (KHTML, like Gecko) Chrome/83.0.4103.116 Safari/537.36",59,"[0.9, 0.5, 0.1]","[0.8, 0.4, 0.2]","[u'black', u'blue', u'red']","[u'left', u'middle', u'right']","[0.9, 0.5, 0.1]","[u'medium', u'high', u'low']","blue",50,"middle","high","True","False",373,2450,NA
"AX9DKJZE40514","Wed Sep 30 2020 17:08:41 GMT-0400 (Eastern Daylight Time)","Wed Sep 30 2020 17:26:57 GMT-0400 (Eastern Daylight Time)","Mozilla/5.0 (Windows NT 10.0; WOW64) AppleWebKit/537.36 (KHTML, like Gecko) Chrome/83.0.4103.116 Safari/537.36",60,"[0.9, 0.5, 0.1]","[0.8, 0.4, 0.2]","[u'black', u'blue', u'red']","[u'left', u'middle', u'right']","[0.9, 0.5, 0.1]","[u'medium', u'high', u'low']","blue",50,"middle","high","False","False",8285,2400,NA
"AX9DKJZE40514","Wed Sep 30 2020 17:08:41 GMT-0400 (Eastern Daylight Time)","Wed Sep 30 2020 17:26:57 GMT-0400 (Eastern Daylight Time)","Mozilla/5.0 (Windows NT 10.0; WOW64) AppleWebKit/537.36 (KHTML, like Gecko) Chrome/83.0.4103.116 Safari/537.36",61,"[0.9, 0.5, 0.1]","[0.8, 0.4, 0.2]","[u'black', u'blue', u'red']","[u'left', u'middle', u'right']","[0.9, 0.5, 0.1]","[u'medium', u'high', u'low']","black",49,"left","medium","False","False",511,2350,NA
"AX9DKJZE40514","Wed Sep 30 2020 17:08:41 GMT-0400 (Eastern Daylight Time)","Wed Sep 30 2020 17:26:57 GMT-0400 (Eastern Daylight Time)","Mozilla/5.0 (Windows NT 10.0; WOW64) AppleWebKit/537.36 (KHTML, like Gecko) Chrome/83.0.4103.116 Safari/537.36",62,"[0.9, 0.5, 0.1]","[0.8, 0.4, 0.2]","[u'black', u'blue', u'red']","[u'left', u'middle', u'right']","[0.9, 0.5, 0.1]","[u'medium', u'high', u'low']","red",51,"right","low","False","False",650,2300,NA
"AX9DKJZE40514","Wed Sep 30 2020 17:08:41 GMT-0400 (Eastern Daylight Time)","Wed Sep 30 2020 17:26:57 GMT-0400 (Eastern Daylight Time)","Mozilla/5.0 (Windows NT 10.0; WOW64) AppleWebKit/537.36 (KHTML, like Gecko) Chrome/83.0.4103.116 Safari/537.36",63,"[0.9, 0.5, 0.1]","[0.8, 0.4, 0.2]","[u'black', u'blue', u'red']","[u'left', u'middle', u'right']","[0.9, 0.5, 0.1]","[u'medium', u'high', u'low']","blue",50,"middle","high","True","False",180,2400,NA
"AX9DKJZE40514","Wed Sep 30 2020 17:08:41 GMT-0400 (Eastern Daylight Time)","Wed Sep 30 2020 17:26:57 GMT-0400 (Eastern Daylight Time)","Mozilla/5.0 (Windows NT 10.0; WOW64) AppleWebKit/537.36 (KHTML, like Gecko) Chrome/83.0.4103.116 Safari/537.36",64,"[0.9, 0.5, 0.1]","[0.8, 0.4, 0.2]","[u'black', u'blue', u'red']","[u'left', u'middle', u'right']","[0.9, 0.5, 0.1]","[u'medium', u'high', u'low']","blue",50,"middle","high","True","False",1448,2500,NA
"AX9DKJZE40514","Wed Sep 30 2020 17:08:41 GMT-0400 (Eastern Daylight Time)","Wed Sep 30 2020 17:26:57 GMT-0400 (Eastern Daylight Time)","Mozilla/5.0 (Windows NT 10.0; WOW64) AppleWebKit/537.36 (KHTML, like Gecko) Chrome/83.0.4103.116 Safari/537.36",65,"[0.9, 0.5, 0.1]","[0.8, 0.4, 0.2]","[u'black', u'blue', u'red']","[u'left', u'middle', u'right']","[0.9, 0.5, 0.1]","[u'medium', u'high', u'low']","blue",50,"middle","high","True","False",354,2600,NA
"AX9DKJZE40514","Wed Sep 30 2020 17:08:41 GMT-0400 (Eastern Daylight Time)","Wed Sep 30 2020 17:26:57 GMT-0400 (Eastern Daylight Time)","Mozilla/5.0 (Windows NT 10.0; WOW64) AppleWebKit/537.36 (KHTML, like Gecko) Chrome/83.0.4103.116 Safari/537.36",66,"[0.9, 0.5, 0.1]","[0.8, 0.4, 0.2]","[u'black', u'blue', u'red']","[u'left', u'middle', u'right']","[0.9, 0.5, 0.1]","[u'medium', u'high', u'low']","blue",50,"middle","high","False","False",917,2550,NA
"AX9DKJZE40514","Wed Sep 30 2020 17:08:41 GMT-0400 (Eastern Daylight Time)","Wed Sep 30 2020 17:26:57 GMT-0400 (Eastern Daylight Time)","Mozilla/5.0 (Windows NT 10.0; WOW64) AppleWebKit/537.36 (KHTML, like Gecko) Chrome/83.0.4103.116 Safari/537.36",67,"[0.9, 0.5, 0.1]","[0.8, 0.4, 0.2]","[u'black', u'blue', u'red']","[u'left', u'middle', u'right']","[0.9, 0.5, 0.1]","[u'medium', u'high', u'low']","red",51,"right","low","False","False",887,2500,NA
"AX9DKJZE40514","Wed Sep 30 2020 17:08:41 GMT-0400 (Eastern Daylight Time)","Wed Sep 30 2020 17:26:57 GMT-0400 (Eastern Daylight Time)","Mozilla/5.0 (Windows NT 10.0; WOW64) AppleWebKit/537.36 (KHTML, like Gecko) Chrome/83.0.4103.116 Safari/537.36",68,"[0.9, 0.5, 0.1]","[0.8, 0.4, 0.2]","[u'black', u'blue', u'red']","[u'left', u'middle', u'right']","[0.9, 0.5, 0.1]","[u'medium', u'high', u'low']","blue",50,"middle","high","True","False",402,2600,NA
"AX9DKJZE40514","Wed Sep 30 2020 17:08:41 GMT-0400 (Eastern Daylight Time)","Wed Sep 30 2020 17:26:57 GMT-0400 (Eastern Daylight Time)","Mozilla/5.0 (Windows NT 10.0; WOW64) AppleWebKit/537.36 (KHTML, like Gecko) Chrome/83.0.4103.116 Safari/537.36",69,"[0.9, 0.5, 0.1]","[0.8, 0.4, 0.2]","[u'black', u'blue', u'red']","[u'left', u'middle', u'right']","[0.9, 0.5, 0.1]","[u'medium', u'high', u'low']","blue",50,"middle","high","False","False",712,2550,NA
"AX9DKJZE40514","Wed Sep 30 2020 17:08:41 GMT-0400 (Eastern Daylight Time)","Wed Sep 30 2020 17:26:57 GMT-0400 (Eastern Daylight Time)","Mozilla/5.0 (Windows NT 10.0; WOW64) AppleWebKit/537.36 (KHTML, like Gecko) Chrome/83.0.4103.116 Safari/537.36",70,"[0.9, 0.5, 0.1]","[0.8, 0.4, 0.2]","[u'black', u'blue', u'red']","[u'left', u'middle', u'right']","[0.9, 0.5, 0.1]","[u'medium', u'high', u'low']","blue",50,"middle","high","True","False",11397,2650,NA
"AX9DKJZE40514","Wed Sep 30 2020 17:08:41 GMT-0400 (Eastern Daylight Time)","Wed Sep 30 2020 17:26:57 GMT-0400 (Eastern Daylight Time)","Mozilla/5.0 (Windows NT 10.0; WOW64) AppleWebKit/537.36 (KHTML, like Gecko) Chrome/83.0.4103.116 Safari/537.36",71,"[0.9, 0.5, 0.1]","[0.8, 0.4, 0.2]","[u'black', u'blue', u'red']","[u'left', u'middle', u'right']","[0.9, 0.5, 0.1]","[u'medium', u'high', u'low']","blue",50,"middle","high","True","False",266,2750,NA
"AX9DKJZE40514","Wed Sep 30 2020 17:08:41 GMT-0400 (Eastern Daylight Time)","Wed Sep 30 2020 17:26:57 GMT-0400 (Eastern Daylight Time)","Mozilla/5.0 (Windows NT 10.0; WOW64) AppleWebKit/537.36 (KHTML, like Gecko) Chrome/83.0.4103.116 Safari/537.36",72,"[0.9, 0.5, 0.1]","[0.8, 0.4, 0.2]","[u'black', u'blue', u'red']","[u'left', u'middle', u'right']","[0.9, 0.5, 0.1]","[u'medium', u'high', u'low']","blue",50,"middle","high","True","True",369,2850,NA
"AX9DKJZE40514","Wed Sep 30 2020 17:08:41 GMT-0400 (Eastern Daylight Time)","Wed Sep 30 2020 17:26:57 GMT-0400 (Eastern Daylight Time)","Mozilla/5.0 (Windows NT 10.0; WOW64) AppleWebKit/537.36 (KHTML, like Gecko) Chrome/83.0.4103.116 Safari/537.36",73,"[0.9, 0.5, 0.1]","[0.8, 0.4, 0.2]","[u'black', u'blue', u'red']","[u'left', u'middle', u'right']","[0.9, 0.5, 0.1]","[u'high', u'low', u'medium']","blue",50,"middle","low","False","False",1193,2800,NA
"AX9DKJZE40514","Wed Sep 30 2020 17:08:41 GMT-0400 (Eastern Daylight Time)","Wed Sep 30 2020 17:26:57 GMT-0400 (Eastern Daylight Time)","Mozilla/5.0 (Windows NT 10.0; WOW64) AppleWebKit/537.36 (KHTML, like Gecko) Chrome/83.0.4103.116 Safari/537.36",74,"[0.9, 0.5, 0.1]","[0.8, 0.4, 0.2]","[u'black', u'blue', u'red']","[u'left', u'middle', u'right']","[0.9, 0.5, 0.1]","[u'high', u'low', u'medium']","black",49,"left","high","True","False",1240,2900,NA
"AX9DKJZE40514","Wed Sep 30 2020 17:08:41 GMT-0400 (Eastern Daylight Time)","Wed Sep 30 2020 17:26:57 GMT-0400 (Eastern Daylight Time)","Mozilla/5.0 (Windows NT 10.0; WOW64) AppleWebKit/537.36 (KHTML, like Gecko) Chrome/83.0.4103.116 Safari/537.36",75,"[0.9, 0.5, 0.1]","[0.8, 0.4, 0.2]","[u'black', u'blue', u'red']","[u'left', u'middle', u'right']","[0.9, 0.5, 0.1]","[u'high', u'low', u'medium']","black",49,"left","high","True","False",718,3000,NA
"AX9DKJZE40514","Wed Sep 30 2020 17:08:41 GMT-0400 (Eastern Daylight Time)","Wed Sep 30 2020 17:26:57 GMT-0400 (Eastern Daylight Time)","Mozilla/5.0 (Windows NT 10.0; WOW64) AppleWebKit/537.36 (KHTML, like Gecko) Chrome/83.0.4103.116 Safari/537.36",76,"[0.9, 0.5, 0.1]","[0.8, 0.4, 0.2]","[u'black', u'blue', u'red']","[u'left', u'middle', u'right']","[0.9, 0.5, 0.1]","[u'high', u'low', u'medium']","blue",50,"middle","low","True","False",9499,3100,NA
"AX9DKJZE40514","Wed Sep 30 2020 17:08:41 GMT-0400 (Eastern Daylight Time)","Wed Sep 30 2020 17:26:57 GMT-0400 (Eastern Daylight Time)","Mozilla/5.0 (Windows NT 10.0; WOW64) AppleWebKit/537.36 (KHTML, like Gecko) Chrome/83.0.4103.116 Safari/537.36",77,"[0.9, 0.5, 0.1]","[0.8, 0.4, 0.2]","[u'black', u'blue', u'red']","[u'left', u'middle', u'right']","[0.9, 0.5, 0.1]","[u'high', u'low', u'medium']","blue",50,"middle","low","False","False",778,3050,NA
"AX9DKJZE40514","Wed Sep 30 2020 17:08:41 GMT-0400 (Eastern Daylight Time)","Wed Sep 30 2020 17:26:57 GMT-0400 (Eastern Daylight Time)","Mozilla/5.0 (Windows NT 10.0; WOW64) AppleWebKit/537.36 (KHTML, like Gecko) Chrome/83.0.4103.116 Safari/537.36",78,"[0.9, 0.5, 0.1]","[0.8, 0.4, 0.2]","[u'black', u'blue', u'red']","[u'left', u'middle', u'right']","[0.9, 0.5, 0.1]","[u'high', u'low', u'medium']","blue",50,"middle","low","False","False",875,3000,NA
"AX9DKJZE40514","Wed Sep 30 2020 17:08:41 GMT-0400 (Eastern Daylight Time)","Wed Sep 30 2020 17:26:57 GMT-0400 (Eastern Daylight Time)","Mozilla/5.0 (Windows NT 10.0; WOW64) AppleWebKit/537.36 (KHTML, like Gecko) Chrome/83.0.4103.116 Safari/537.36",79,"[0.9, 0.5, 0.1]","[0.8, 0.4, 0.2]","[u'black', u'blue', u'red']","[u'left', u'middle', u'right']","[0.9, 0.5, 0.1]","[u'high', u'low', u'medium']","red",51,"right","medium","False","False",918,2950,NA
"AX9DKJZE40514","Wed Sep 30 2020 17:08:41 GMT-0400 (Eastern Daylight Time)","Wed Sep 30 2020 17:26:57 GMT-0400 (Eastern Daylight Time)","Mozilla/5.0 (Windows NT 10.0; WOW64) AppleWebKit/537.36 (KHTML, like Gecko) Chrome/83.0.4103.116 Safari/537.36",80,"[0.9, 0.5, 0.1]","[0.8, 0.4, 0.2]","[u'black', u'blue', u'red']","[u'left', u'middle', u'right']","[0.9, 0.5, 0.1]","[u'high', u'low', u'medium']","black",49,"left","high","True","False",715,3050,NA
"AX9DKJZE40514","Wed Sep 30 2020 17:08:41 GMT-0400 (Eastern Daylight Time)","Wed Sep 30 2020 17:26:57 GMT-0400 (Eastern Daylight Time)","Mozilla/5.0 (Windows NT 10.0; WOW64) AppleWebKit/537.36 (KHTML, like Gecko) Chrome/83.0.4103.116 Safari/537.36",81,"[0.9, 0.5, 0.1]","[0.8, 0.4, 0.2]","[u'black', u'blue', u'red']","[u'left', u'middle', u'right']","[0.8, 0.4, 0.2]","[u'low', u'medium', u'high']","blue",50,"middle","medium","False","False",989,3000,NA
"AX9DKJZE40514","Wed Sep 30 2020 17:08:41 GMT-0400 (Eastern Daylight Time)","Wed Sep 30 2020 17:26:57 GMT-0400 (Eastern Daylight Time)","Mozilla/5.0 (Windows NT 10.0; WOW64) AppleWebKit/537.36 (KHTML, like Gecko) Chrome/83.0.4103.116 Safari/537.36",82,"[0.9, 0.5, 0.1]","[0.8, 0.4, 0.2]","[u'black', u'blue', u'red']","[u'left', u'middle', u'right']","[0.8, 0.4, 0.2]","[u'low', u'medium', u'high']","black",49,"left","low","False","False",601,2950,NA
"AX9DKJZE40514","Wed Sep 30 2020 17:08:41 GMT-0400 (Eastern Daylight Time)","Wed Sep 30 2020 17:26:57 GMT-0400 (Eastern Daylight Time)","Mozilla/5.0 (Windows NT 10.0; WOW64) AppleWebKit/537.36 (KHTML, like Gecko) Chrome/83.0.4103.116 Safari/537.36",83,"[0.9, 0.5, 0.1]","[0.8, 0.4, 0.2]","[u'black', u'blue', u'red']","[u'left', u'middle', u'right']","[0.8, 0.4, 0.2]","[u'low', u'medium', u'high']","blue",50,"middle","medium","True","False",407,3050,NA
"AX9DKJZE40514","Wed Sep 30 2020 17:08:41 GMT-0400 (Eastern Daylight Time)","Wed Sep 30 2020 17:26:57 GMT-0400 (Eastern Daylight Time)","Mozilla/5.0 (Windows NT 10.0; WOW64) AppleWebKit/537.36 (KHTML, like Gecko) Chrome/83.0.4103.116 Safari/537.36",84,"[0.9, 0.5, 0.1]","[0.8, 0.4, 0.2]","[u'black', u'blue', u'red']","[u'left', u'middle', u'right']","[0.8, 0.4, 0.2]","[u'low', u'medium', u'high']","blue",50,"middle","medium","False","False",764,3000,NA
"AX9DKJZE40514","Wed Sep 30 2020 17:08:41 GMT-0400 (Eastern Daylight Time)","Wed Sep 30 2020 17:26:57 GMT-0400 (Eastern Daylight Time)","Mozilla/5.0 (Windows NT 10.0; WOW64) AppleWebKit/537.36 (KHTML, like Gecko) Chrome/83.0.4103.116 Safari/537.36",85,"[0.9, 0.5, 0.1]","[0.8, 0.4, 0.2]","[u'black', u'blue', u'red']","[u'left', u'middle', u'right']","[0.8, 0.4, 0.2]","[u'low', u'medium', u'high']","blue",50,"middle","medium","True","False",10476,3100,NA
"AX9DKJZE40514","Wed Sep 30 2020 17:08:41 GMT-0400 (Eastern Daylight Time)","Wed Sep 30 2020 17:26:57 GMT-0400 (Eastern Daylight Time)","Mozilla/5.0 (Windows NT 10.0; WOW64) AppleWebKit/537.36 (KHTML, like Gecko) Chrome/83.0.4103.116 Safari/537.36",86,"[0.9, 0.5, 0.1]","[0.8, 0.4, 0.2]","[u'black', u'blue', u'red']","[u'left', u'middle', u'right']","[0.8, 0.4, 0.2]","[u'low', u'medium', u'high']","blue",50,"middle","medium","True","False",551,3200,NA
"AX9DKJZE40514","Wed Sep 30 2020 17:08:41 GMT-0400 (Eastern Daylight Time)","Wed Sep 30 2020 17:26:57 GMT-0400 (Eastern Daylight Time)","Mozilla/5.0 (Windows NT 10.0; WOW64) AppleWebKit/537.36 (KHTML, like Gecko) Chrome/83.0.4103.116 Safari/537.36",87,"[0.9, 0.5, 0.1]","[0.8, 0.4, 0.2]","[u'black', u'blue', u'red']","[u'left', u'middle', u'right']","[0.8, 0.4, 0.2]","[u'low', u'medium', u'high']","blue",50,"middle","medium","False","False",807,3150,NA
"AX9DKJZE40514","Wed Sep 30 2020 17:08:41 GMT-0400 (Eastern Daylight Time)","Wed Sep 30 2020 17:26:57 GMT-0400 (Eastern Daylight Time)","Mozilla/5.0 (Windows NT 10.0; WOW64) AppleWebKit/537.36 (KHTML, like Gecko) Chrome/83.0.4103.116 Safari/537.36",88,"[0.9, 0.5, 0.1]","[0.8, 0.4, 0.2]","[u'black', u'blue', u'red']","[u'left', u'middle', u'right']","[0.8, 0.4, 0.2]","[u'low', u'medium', u'high']","blue",50,"middle","medium","False","False",771,3100,NA
"AX9DKJZE40514","Wed Sep 30 2020 17:08:41 GMT-0400 (Eastern Daylight Time)","Wed Sep 30 2020 17:26:57 GMT-0400 (Eastern Daylight Time)","Mozilla/5.0 (Windows NT 10.0; WOW64) AppleWebKit/537.36 (KHTML, like Gecko) Chrome/83.0.4103.116 Safari/537.36",89,"[0.9, 0.5, 0.1]","[0.8, 0.4, 0.2]","[u'black', u'blue', u'red']","[u'left', u'middle', u'right']","[0.8, 0.4, 0.2]","[u'low', u'medium', u'high']","blue",50,"middle","medium","False","False",356,3050,NA
"AX9DKJZE40514","Wed Sep 30 2020 17:08:41 GMT-0400 (Eastern Daylight Time)","Wed Sep 30 2020 17:26:57 GMT-0400 (Eastern Daylight Time)","Mozilla/5.0 (Windows NT 10.0; WOW64) AppleWebKit/537.36 (KHTML, like Gecko) Chrome/83.0.4103.116 Safari/537.36",90,"[0.9, 0.5, 0.1]","[0.8, 0.4, 0.2]","[u'black', u'blue', u'red']","[u'left', u'middle', u'right']","[0.8, 0.4, 0.2]","[u'low', u'medium', u'high']","blue",50,"middle","medium","False","False",4276,3000,NA
"AX9DKJZE40514","Wed Sep 30 2020 17:08:41 GMT-0400 (Eastern Daylight Time)","Wed Sep 30 2020 17:26:57 GMT-0400 (Eastern Daylight Time)","Mozilla/5.0 (Windows NT 10.0; WOW64) AppleWebKit/537.36 (KHTML, like Gecko) Chrome/83.0.4103.116 Safari/537.36",91,"[0.9, 0.5, 0.1]","[0.8, 0.4, 0.2]","[u'black', u'blue', u'red']","[u'left', u'middle', u'right']","[0.8, 0.4, 0.2]","[u'low', u'medium', u'high']","blue",50,"middle","medium","False","False",654,2950,NA
"AX9DKJZE40514","Wed Sep 30 2020 17:08:41 GMT-0400 (Eastern Daylight Time)","Wed Sep 30 2020 17:26:57 GMT-0400 (Eastern Daylight Time)","Mozilla/5.0 (Windows NT 10.0; WOW64) AppleWebKit/537.36 (KHTML, like Gecko) Chrome/83.0.4103.116 Safari/537.36",92,"[0.9, 0.5, 0.1]","[0.8, 0.4, 0.2]","[u'black', u'blue', u'red']","[u'left', u'middle', u'right']","[0.8, 0.4, 0.2]","[u'low', u'medium', u'high']","blue",50,"middle","medium","False","False",300,2900,NA
"AX9DKJZE40514","Wed Sep 30 2020 17:08:41 GMT-0400 (Eastern Daylight Time)","Wed Sep 30 2020 17:26:57 GMT-0400 (Eastern Daylight Time)","Mozilla/5.0 (Windows NT 10.0; WOW64) AppleWebKit/537.36 (KHTML, like Gecko) Chrome/83.0.4103.116 Safari/537.36",93,"[0.9, 0.5, 0.1]","[0.8, 0.4, 0.2]","[u'black', u'blue', u'red']","[u'left', u'middle', u'right']","[0.8, 0.4, 0.2]","[u'low', u'medium', u'high']","black",49,"left","low","True","False",339,3000,NA
"AX9DKJZE40514","Wed Sep 30 2020 17:08:41 GMT-0400 (Eastern Daylight Time)","Wed Sep 30 2020 17:26:57 GMT-0400 (Eastern Daylight Time)","Mozilla/5.0 (Windows NT 10.0; WOW64) AppleWebKit/537.36 (KHTML, like Gecko) Chrome/83.0.4103.116 Safari/537.36",94,"[0.9, 0.5, 0.1]","[0.8, 0.4, 0.2]","[u'black', u'blue', u'red']","[u'left', u'middle', u'right']","[0.8, 0.4, 0.2]","[u'low', u'medium', u'high']","black",49,"left","low","True","False",592,3100,NA
"AX9DKJZE40514","Wed Sep 30 2020 17:08:41 GMT-0400 (Eastern Daylight Time)","Wed Sep 30 2020 17:26:57 GMT-0400 (Eastern Daylight Time)","Mozilla/5.0 (Windows NT 10.0; WOW64) AppleWebKit/537.36 (KHTML, like Gecko) Chrome/83.0.4103.116 Safari/537.36",95,"[0.9, 0.5, 0.1]","[0.8, 0.4, 0.2]","[u'black', u'blue', u'red']","[u'left', u'middle', u'right']","[0.8, 0.4, 0.2]","[u'low', u'medium', u'high']","blue",50,"middle","medium","True","False",12193,3200,NA
"AX9DKJZE40514","Wed Sep 30 2020 17:08:41 GMT-0400 (Eastern Daylight Time)","Wed Sep 30 2020 17:26:57 GMT-0400 (Eastern Daylight Time)","Mozilla/5.0 (Windows NT 10.0; WOW64) AppleWebKit/537.36 (KHTML, like Gecko) Chrome/83.0.4103.116 Safari/537.36",96,"[0.9, 0.5, 0.1]","[0.8, 0.4, 0.2]","[u'black', u'blue', u'red']","[u'left', u'middle', u'right']","[0.8, 0.4, 0.2]","[u'low', u'medium', u'high']","blue",50,"middle","medium","False","False",204,3150,NA
"AX9DKJZE40514","Wed Sep 30 2020 17:08:41 GMT-0400 (Eastern Daylight Time)","Wed Sep 30 2020 17:26:57 GMT-0400 (Eastern Daylight Time)","Mozilla/5.0 (Windows NT 10.0; WOW64) AppleWebKit/537.36 (KHTML, like Gecko) Chrome/83.0.4103.116 Safari/537.36",97,"[0.9, 0.5, 0.1]","[0.8, 0.4, 0.2]","[u'black', u'blue', u'red']","[u'left', u'middle', u'right']","[0.8, 0.4, 0.2]","[u'low', u'medium', u'high']","red",51,"right","high","False","False",976,3100,NA
"AX9DKJZE40514","Wed Sep 30 2020 17:08:41 GMT-0400 (Eastern Daylight Time)","Wed Sep 30 2020 17:26:57 GMT-0400 (Eastern Daylight Time)","Mozilla/5.0 (Windows NT 10.0; WOW64) AppleWebKit/537.36 (KHTML, like Gecko) Chrome/83.0.4103.116 Safari/537.36",98,"[0.9, 0.5, 0.1]","[0.8, 0.4, 0.2]","[u'black', u'blue', u'red']","[u'left', u'middle', u'right']","[0.8, 0.4, 0.2]","[u'low', u'medium', u'high']","blue",50,"middle","medium","False","False",3584,3050,NA
"AX9DKJZE40514","Wed Sep 30 2020 17:08:41 GMT-0400 (Eastern Daylight Time)","Wed Sep 30 2020 17:26:57 GMT-0400 (Eastern Daylight Time)","Mozilla/5.0 (Windows NT 10.0; WOW64) AppleWebKit/537.36 (KHTML, like Gecko) Chrome/83.0.4103.116 Safari/537.36",99,"[0.9, 0.5, 0.1]","[0.8, 0.4, 0.2]","[u'black', u'blue', u'red']","[u'left', u'middle', u'right']","[0.8, 0.4, 0.2]","[u'low', u'medium', u'high']","black",49,"left","low","False","False",421,3000,NA
"AX9DKJZE40514","Wed Sep 30 2020 17:08:41 GMT-0400 (Eastern Daylight Time)","Wed Sep 30 2020 17:26:57 GMT-0400 (Eastern Daylight Time)","Mozilla/5.0 (Windows NT 10.0; WOW64) AppleWebKit/537.36 (KHTML, like Gecko) Chrome/83.0.4103.116 Safari/537.36",100,"[0.9, 0.5, 0.1]","[0.8, 0.4, 0.2]","[u'black', u'blue', u'red']","[u'left', u'middle', u'right']","[0.8, 0.4, 0.2]","[u'low', u'medium', u'high']","red",51,"right","high","False","False",607,2950,NA
"AX9DKJZE40514","Wed Sep 30 2020 17:08:41 GMT-0400 (Eastern Daylight Time)","Wed Sep 30 2020 17:26:57 GMT-0400 (Eastern Daylight Time)","Mozilla/5.0 (Windows NT 10.0; WOW64) AppleWebKit/537.36 (KHTML, like Gecko) Chrome/83.0.4103.116 Safari/537.36",101,"[0.9, 0.5, 0.1]","[0.8, 0.4, 0.2]","[u'black', u'blue', u'red']","[u'left', u'middle', u'right']","[0.8, 0.4, 0.2]","[u'low', u'medium', u'high']","blue",50,"middle","medium","True","False",10596,3050,NA
"AX9DKJZE40514","Wed Sep 30 2020 17:08:41 GMT-0400 (Eastern Daylight Time)","Wed Sep 30 2020 17:26:57 GMT-0400 (Eastern Daylight Time)","Mozilla/5.0 (Windows NT 10.0; WOW64) AppleWebKit/537.36 (KHTML, like Gecko) Chrome/83.0.4103.116 Safari/537.36",102,"[0.9, 0.5, 0.1]","[0.8, 0.4, 0.2]","[u'black', u'blue', u'red']","[u'left', u'middle', u'right']","[0.8, 0.4, 0.2]","[u'low', u'medium', u'high']","blue",50,"middle","medium","True","False",683,3150,NA
"AX9DKJZE40514","Wed Sep 30 2020 17:08:41 GMT-0400 (Eastern Daylight Time)","Wed Sep 30 2020 17:26:57 GMT-0400 (Eastern Daylight Time)","Mozilla/5.0 (Windows NT 10.0; WOW64) AppleWebKit/537.36 (KHTML, like Gecko) Chrome/83.0.4103.116 Safari/537.36",103,"[0.9, 0.5, 0.1]","[0.8, 0.4, 0.2]","[u'black', u'blue', u'red']","[u'left', u'middle', u'right']","[0.8, 0.4, 0.2]","[u'low', u'medium', u'high']","blue",50,"middle","medium","False","False",291,3100,NA
"AX9DKJZE40514","Wed Sep 30 2020 17:08:41 GMT-0400 (Eastern Daylight Time)","Wed Sep 30 2020 17:26:57 GMT-0400 (Eastern Daylight Time)","Mozilla/5.0 (Windows NT 10.0; WOW64) AppleWebKit/537.36 (KHTML, like Gecko) Chrome/83.0.4103.116 Safari/537.36",104,"[0.9, 0.5, 0.1]","[0.8, 0.4, 0.2]","[u'black', u'blue', u'red']","[u'left', u'middle', u'right']","[0.8, 0.4, 0.2]","[u'low', u'medium', u'high']","red",51,"right","high","True","False",863,3200,NA
"AX9DKJZE40514","Wed Sep 30 2020 17:08:41 GMT-0400 (Eastern Daylight Time)","Wed Sep 30 2020 17:26:57 GMT-0400 (Eastern Daylight Time)","Mozilla/5.0 (Windows NT 10.0; WOW64) AppleWebKit/537.36 (KHTML, like Gecko) Chrome/83.0.4103.116 Safari/537.36",105,"[0.9, 0.5, 0.1]","[0.8, 0.4, 0.2]","[u'black', u'blue', u'red']","[u'left', u'middle', u'right']","[0.8, 0.4, 0.2]","[u'low', u'medium', u'high']","black",49,"left","low","False","False",3457,3150,NA
"AX9DKJZE40514","Wed Sep 30 2020 17:08:41 GMT-0400 (Eastern Daylight Time)","Wed Sep 30 2020 17:26:57 GMT-0400 (Eastern Daylight Time)","Mozilla/5.0 (Windows NT 10.0; WOW64) AppleWebKit/537.36 (KHTML, like Gecko) Chrome/83.0.4103.116 Safari/537.36",106,"[0.9, 0.5, 0.1]","[0.8, 0.4, 0.2]","[u'black', u'blue', u'red']","[u'left', u'middle', u'right']","[0.8, 0.4, 0.2]","[u'low', u'medium', u'high']","blue",50,"middle","medium","True","False",20436,3250,NA
"AX9DKJZE40514","Wed Sep 30 2020 17:08:41 GMT-0400 (Eastern Daylight Time)","Wed Sep 30 2020 17:26:57 GMT-0400 (Eastern Daylight Time)","Mozilla/5.0 (Windows NT 10.0; WOW64) AppleWebKit/537.36 (KHTML, like Gecko) Chrome/83.0.4103.116 Safari/537.36",107,"[0.9, 0.5, 0.1]","[0.8, 0.4, 0.2]","[u'black', u'blue', u'red']","[u'left', u'middle', u'right']","[0.8, 0.4, 0.2]","[u'low', u'medium', u'high']","blue",50,"middle","medium","False","False",744,3200,NA
"AX9DKJZE40514","Wed Sep 30 2020 17:08:41 GMT-0400 (Eastern Daylight Time)","Wed Sep 30 2020 17:26:57 GMT-0400 (Eastern Daylight Time)","Mozilla/5.0 (Windows NT 10.0; WOW64) AppleWebKit/537.36 (KHTML, like Gecko) Chrome/83.0.4103.116 Safari/537.36",108,"[0.9, 0.5, 0.1]","[0.8, 0.4, 0.2]","[u'black', u'blue', u'red']","[u'left', u'middle', u'right']","[0.8, 0.4, 0.2]","[u'low', u'medium', u'high']","black",49,"left","low","False","False",170,3150,NA
"AX9DKJZE40514","Wed Sep 30 2020 17:08:41 GMT-0400 (Eastern Daylight Time)","Wed Sep 30 2020 17:26:57 GMT-0400 (Eastern Daylight Time)","Mozilla/5.0 (Windows NT 10.0; WOW64) AppleWebKit/537.36 (KHTML, like Gecko) Chrome/83.0.4103.116 Safari/537.36",109,"[0.9, 0.5, 0.1]","[0.8, 0.4, 0.2]","[u'black', u'blue', u'red']","[u'left', u'middle', u'right']","[0.8, 0.4, 0.2]","[u'low', u'medium', u'high']","blue",50,"middle","medium","True","False",856,3250,NA
"AX9DKJZE40514","Wed Sep 30 2020 17:08:41 GMT-0400 (Eastern Daylight Time)","Wed Sep 30 2020 17:26:57 GMT-0400 (Eastern Daylight Time)","Mozilla/5.0 (Windows NT 10.0; WOW64) AppleWebKit/537.36 (KHTML, like Gecko) Chrome/83.0.4103.116 Safari/537.36",110,"[0.9, 0.5, 0.1]","[0.8, 0.4, 0.2]","[u'black', u'blue', u'red']","[u'left', u'middle', u'right']","[0.8, 0.4, 0.2]","[u'low', u'medium', u'high']","blue",50,"middle","medium","False","False",552,3200,NA
"AX9DKJZE40514","Wed Sep 30 2020 17:08:41 GMT-0400 (Eastern Daylight Time)","Wed Sep 30 2020 17:26:57 GMT-0400 (Eastern Daylight Time)","Mozilla/5.0 (Windows NT 10.0; WOW64) AppleWebKit/537.36 (KHTML, like Gecko) Chrome/83.0.4103.116 Safari/537.36",111,"[0.9, 0.5, 0.1]","[0.8, 0.4, 0.2]","[u'black', u'blue', u'red']","[u'left', u'middle', u'right']","[0.8, 0.4, 0.2]","[u'low', u'medium', u'high']","red",51,"right","high","True","False",9232,3300,NA
"AX9DKJZE40514","Wed Sep 30 2020 17:08:41 GMT-0400 (Eastern Daylight Time)","Wed Sep 30 2020 17:26:57 GMT-0400 (Eastern Daylight Time)","Mozilla/5.0 (Windows NT 10.0; WOW64) AppleWebKit/537.36 (KHTML, like Gecko) Chrome/83.0.4103.116 Safari/537.36",112,"[0.9, 0.5, 0.1]","[0.8, 0.4, 0.2]","[u'black', u'blue', u'red']","[u'left', u'middle', u'right']","[0.8, 0.4, 0.2]","[u'low', u'medium', u'high']","red",51,"right","high","False","False",438,3250,NA
"AX9DKJZE40514","Wed Sep 30 2020 17:08:41 GMT-0400 (Eastern Daylight Time)","Wed Sep 30 2020 17:26:57 GMT-0400 (Eastern Daylight Time)","Mozilla/5.0 (Windows NT 10.0; WOW64) AppleWebKit/537.36 (KHTML, like Gecko) Chrome/83.0.4103.116 Safari/537.36",113,"[0.9, 0.5, 0.1]","[0.8, 0.4, 0.2]","[u'black', u'blue', u'red']","[u'left', u'middle', u'right']","[0.8, 0.4, 0.2]","[u'low', u'medium', u'high']","blue",50,"middle","medium","True","False",615,3350,NA
"AX9DKJZE40514","Wed Sep 30 2020 17:08:41 GMT-0400 (Eastern Daylight Time)","Wed Sep 30 2020 17:26:57 GMT-0400 (Eastern Daylight Time)","Mozilla/5.0 (Windows NT 10.0; WOW64) AppleWebKit/537.36 (KHTML, like Gecko) Chrome/83.0.4103.116 Safari/537.36",114,"[0.9, 0.5, 0.1]","[0.8, 0.4, 0.2]","[u'black', u'blue', u'red']","[u'left', u'middle', u'right']","[0.8, 0.4, 0.2]","[u'low', u'medium', u'high']","blue",50,"middle","medium","False","False",620,3300,NA
"AX9DKJZE40514","Wed Sep 30 2020 17:08:41 GMT-0400 (Eastern Daylight Time)","Wed Sep 30 2020 17:26:57 GMT-0400 (Eastern Daylight Time)","Mozilla/5.0 (Windows NT 10.0; WOW64) AppleWebKit/537.36 (KHTML, like Gecko) Chrome/83.0.4103.116 Safari/537.36",115,"[0.9, 0.5, 0.1]","[0.8, 0.4, 0.2]","[u'black', u'blue', u'red']","[u'left', u'middle', u'right']","[0.8, 0.4, 0.2]","[u'low', u'medium', u'high']","red",51,"right","high","True","False",8598,3400,NA
"AX9DKJZE40514","Wed Sep 30 2020 17:08:41 GMT-0400 (Eastern Daylight Time)","Wed Sep 30 2020 17:26:57 GMT-0400 (Eastern Daylight Time)","Mozilla/5.0 (Windows NT 10.0; WOW64) AppleWebKit/537.36 (KHTML, like Gecko) Chrome/83.0.4103.116 Safari/537.36",116,"[0.9, 0.5, 0.1]","[0.8, 0.4, 0.2]","[u'black', u'blue', u'red']","[u'left', u'middle', u'right']","[0.8, 0.4, 0.2]","[u'low', u'medium', u'high']","black",49,"left","low","False","False",950,3350,NA
"AX9DKJZE40514","Wed Sep 30 2020 17:08:41 GMT-0400 (Eastern Daylight Time)","Wed Sep 30 2020 17:26:57 GMT-0400 (Eastern Daylight Time)","Mozilla/5.0 (Windows NT 10.0; WOW64) AppleWebKit/537.36 (KHTML, like Gecko) Chrome/83.0.4103.116 Safari/537.36",117,"[0.9, 0.5, 0.1]","[0.8, 0.4, 0.2]","[u'black', u'blue', u'red']","[u'left', u'middle', u'right']","[0.8, 0.4, 0.2]","[u'low', u'medium', u'high']","blue",50,"middle","medium","False","False",22594,3300,NA
"AX9DKJZE40514","Wed Sep 30 2020 17:08:41 GMT-0400 (Eastern Daylight Time)","Wed Sep 30 2020 17:26:57 GMT-0400 (Eastern Daylight Time)","Mozilla/5.0 (Windows NT 10.0; WOW64) AppleWebKit/537.36 (KHTML, like Gecko) Chrome/83.0.4103.116 Safari/537.36",118,"[0.9, 0.5, 0.1]","[0.8, 0.4, 0.2]","[u'black', u'blue', u'red']","[u'left', u'middle', u'right']","[0.8, 0.4, 0.2]","[u'low', u'medium', u'high']","red",51,"right","high","False","False",789,3250,NA
"AX9DKJZE40514","Wed Sep 30 2020 17:08:41 GMT-0400 (Eastern Daylight Time)","Wed Sep 30 2020 17:26:57 GMT-0400 (Eastern Daylight Time)","Mozilla/5.0 (Windows NT 10.0; WOW64) AppleWebKit/537.36 (KHTML, like Gecko) Chrome/83.0.4103.116 Safari/537.36",119,"[0.9, 0.5, 0.1]","[0.8, 0.4, 0.2]","[u'black', u'blue', u'red']","[u'left', u'middle', u'right']","[0.8, 0.4, 0.2]","[u'low', u'medium', u'high']","black",49,"left","low","False","False",867,3200,NA
"AX9DKJZE40514","Wed Sep 30 2020 17:08:41 GMT-0400 (Eastern Daylight Time)","Wed Sep 30 2020 17:26:57 GMT-0400 (Eastern Daylight Time)","Mozilla/5.0 (Windows NT 10.0; WOW64) AppleWebKit/537.36 (KHTML, like Gecko) Chrome/83.0.4103.116 Safari/537.36",120,"[0.9, 0.5, 0.1]","[0.8, 0.4, 0.2]","[u'black', u'blue', u'red']","[u'left', u'middle', u'right']","[0.8, 0.4, 0.2]","[u'low', u'medium', u'high']","blue",50,"middle","medium","True","False",564,3300,NA
"AX9DKJZE40514","Wed Sep 30 2020 17:08:41 GMT-0400 (Eastern Daylight Time)","Wed Sep 30 2020 17:26:57 GMT-0400 (Eastern Daylight Time)","Mozilla/5.0 (Windows NT 10.0; WOW64) AppleWebKit/537.36 (KHTML, like Gecko) Chrome/83.0.4103.116 Safari/537.36",121,"[0.9, 0.5, 0.1]","[0.8, 0.4, 0.2]","[u'black', u'blue', u'red']","[u'left', u'middle', u'right']","[0.8, 0.4, 0.2]","[u'high', u'low', u'medium']","blue",50,"middle","low","False","False",1074,3250,NA
"AX9DKJZE40514","Wed Sep 30 2020 17:08:41 GMT-0400 (Eastern Daylight Time)","Wed Sep 30 2020 17:26:57 GMT-0400 (Eastern Daylight Time)","Mozilla/5.0 (Windows NT 10.0; WOW64) AppleWebKit/537.36 (KHTML, like Gecko) Chrome/83.0.4103.116 Safari/537.36",122,"[0.9, 0.5, 0.1]","[0.8, 0.4, 0.2]","[u'black', u'blue', u'red']","[u'left', u'middle', u'right']","[0.8, 0.4, 0.2]","[u'high', u'low', u'medium']","red",51,"right","medium","False","False",200,3200,NA
"AX9DKJZE40514","Wed Sep 30 2020 17:08:41 GMT-0400 (Eastern Daylight Time)","Wed Sep 30 2020 17:26:57 GMT-0400 (Eastern Daylight Time)","Mozilla/5.0 (Windows NT 10.0; WOW64) AppleWebKit/537.36 (KHTML, like Gecko) Chrome/83.0.4103.116 Safari/537.36",123,"[0.9, 0.5, 0.1]","[0.8, 0.4, 0.2]","[u'black', u'blue', u'red']","[u'left', u'middle', u'right']","[0.8, 0.4, 0.2]","[u'high', u'low', u'medium']","blue",50,"middle","low","True","False",302,3300,NA
"AX9DKJZE40514","Wed Sep 30 2020 17:08:41 GMT-0400 (Eastern Daylight Time)","Wed Sep 30 2020 17:26:57 GMT-0400 (Eastern Daylight Time)","Mozilla/5.0 (Windows NT 10.0; WOW64) AppleWebKit/537.36 (KHTML, like Gecko) Chrome/83.0.4103.116 Safari/537.36",124,"[0.9, 0.5, 0.1]","[0.8, 0.4, 0.2]","[u'black', u'blue', u'red']","[u'left', u'middle', u'right']","[0.8, 0.4, 0.2]","[u'high', u'low', u'medium']","blue",50,"middle","low","False","False",420,3250,NA
"AX9DKJZE40514","Wed Sep 30 2020 17:08:41 GMT-0400 (Eastern Daylight Time)","Wed Sep 30 2020 17:26:57 GMT-0400 (Eastern Daylight Time)","Mozilla/5.0 (Windows NT 10.0; WOW64) AppleWebKit/537.36 (KHTML, like Gecko) Chrome/83.0.4103.116 Safari/537.36",125,"[0.9, 0.5, 0.1]","[0.8, 0.4, 0.2]","[u'black', u'blue', u'red']","[u'left', u'middle', u'right']","[0.8, 0.4, 0.2]","[u'high', u'low', u'medium']","blue",50,"middle","low","False","False",414,3200,NA
"AX9DKJZE40514","Wed Sep 30 2020 17:08:41 GMT-0400 (Eastern Daylight Time)","Wed Sep 30 2020 17:26:57 GMT-0400 (Eastern Daylight Time)","Mozilla/5.0 (Windows NT 10.0; WOW64) AppleWebKit/537.36 (KHTML, like Gecko) Chrome/83.0.4103.116 Safari/537.36",126,"[0.9, 0.5, 0.1]","[0.8, 0.4, 0.2]","[u'black', u'blue', u'red']","[u'left', u'middle', u'right']","[0.8, 0.4, 0.2]","[u'high', u'low', u'medium']","blue",50,"middle","low","False","False",409,3150,NA
"AX9DKJZE40514","Wed Sep 30 2020 17:08:41 GMT-0400 (Eastern Daylight Time)","Wed Sep 30 2020 17:26:57 GMT-0400 (Eastern Daylight Time)","Mozilla/5.0 (Windows NT 10.0; WOW64) AppleWebKit/537.36 (KHTML, like Gecko) Chrome/83.0.4103.116 Safari/537.36",127,"[0.9, 0.5, 0.1]","[0.8, 0.4, 0.2]","[u'black', u'blue', u'red']","[u'left', u'middle', u'right']","[0.8, 0.4, 0.2]","[u'high', u'low', u'medium']","blue",50,"middle","low","True","False",135,3250,NA
"AX9DKJZE40514","Wed Sep 30 2020 17:08:41 GMT-0400 (Eastern Daylight Time)","Wed Sep 30 2020 17:26:57 GMT-0400 (Eastern Daylight Time)","Mozilla/5.0 (Windows NT 10.0; WOW64) AppleWebKit/537.36 (KHTML, like Gecko) Chrome/83.0.4103.116 Safari/537.36",128,"[0.9, 0.5, 0.1]","[0.8, 0.4, 0.2]","[u'black', u'blue', u'red']","[u'left', u'middle', u'right']","[0.8, 0.4, 0.2]","[u'high', u'low', u'medium']","blue",50,"middle","low","True","False",136,3350,NA
"AX9DKJZE40514","Wed Sep 30 2020 17:08:41 GMT-0400 (Eastern Daylight Time)","Wed Sep 30 2020 17:26:57 GMT-0400 (Eastern Daylight Time)","Mozilla/5.0 (Windows NT 10.0; WOW64) AppleWebKit/537.36 (KHTML, like Gecko) Chrome/83.0.4103.116 Safari/537.36",129,"[0.9, 0.5, 0.1]","[0.8, 0.4, 0.2]","[u'black', u'blue', u'red']","[u'left', u'middle', u'right']","[0.8, 0.4, 0.2]","[u'high', u'low', u'medium']","blue",50,"middle","low","False","False",489,3300,NA
"AX9DKJZE40514","Wed Sep 30 2020 17:08:41 GMT-0400 (Eastern Daylight Time)","Wed Sep 30 2020 17:26:57 GMT-0400 (Eastern Daylight Time)","Mozilla/5.0 (Windows NT 10.0; WOW64) AppleWebKit/537.36 (KHTML, like Gecko) Chrome/83.0.4103.116 Safari/537.36",130,"[0.9, 0.5, 0.1]","[0.8, 0.4, 0.2]","[u'black', u'blue', u'red']","[u'left', u'middle', u'right']","[0.8, 0.4, 0.2]","[u'high', u'low', u'medium']","red",51,"right","medium","False","False",1441,3250,NA
"AX9DKJZE40514","Wed Sep 30 2020 17:08:41 GMT-0400 (Eastern Daylight Time)","Wed Sep 30 2020 17:26:57 GMT-0400 (Eastern Daylight Time)","Mozilla/5.0 (Windows NT 10.0; WOW64) AppleWebKit/537.36 (KHTML, like Gecko) Chrome/83.0.4103.116 Safari/537.36",131,"[0.9, 0.5, 0.1]","[0.8, 0.4, 0.2]","[u'black', u'blue', u'red']","[u'left', u'middle', u'right']","[0.8, 0.4, 0.2]","[u'high', u'low', u'medium']","red",51,"right","medium","False","False",514,3200,NA
"AX9DKJZE40514","Wed Sep 30 2020 17:08:41 GMT-0400 (Eastern Daylight Time)","Wed Sep 30 2020 17:26:57 GMT-0400 (Eastern Daylight Time)","Mozilla/5.0 (Windows NT 10.0; WOW64) AppleWebKit/537.36 (KHTML, like Gecko) Chrome/83.0.4103.116 Safari/537.36",132,"[0.9, 0.5, 0.1]","[0.8, 0.4, 0.2]","[u'black', u'blue', u'red']","[u'left', u'middle', u'right']","[0.8, 0.4, 0.2]","[u'high', u'low', u'medium']","black",49,"left","high","False","False",376,3150,NA
"AX9DKJZE40514","Wed Sep 30 2020 17:08:41 GMT-0400 (Eastern Daylight Time)","Wed Sep 30 2020 17:26:57 GMT-0400 (Eastern Daylight Time)","Mozilla/5.0 (Windows NT 10.0; WOW64) AppleWebKit/537.36 (KHTML, like Gecko) Chrome/83.0.4103.116 Safari/537.36",133,"[0.9, 0.5, 0.1]","[0.8, 0.4, 0.2]","[u'black', u'blue', u'red']","[u'left', u'middle', u'right']","[0.8, 0.4, 0.2]","[u'high', u'low', u'medium']","blue",50,"middle","low","True","False",4918,3250,NA
"AX9DKJZE40514","Wed Sep 30 2020 17:08:41 GMT-0400 (Eastern Daylight Time)","Wed Sep 30 2020 17:26:57 GMT-0400 (Eastern Daylight Time)","Mozilla/5.0 (Windows NT 10.0; WOW64) AppleWebKit/537.36 (KHTML, like Gecko) Chrome/83.0.4103.116 Safari/537.36",134,"[0.9, 0.5, 0.1]","[0.8, 0.4, 0.2]","[u'black', u'blue', u'red']","[u'left', u'middle', u'right']","[0.8, 0.4, 0.2]","[u'high', u'low', u'medium']","blue",50,"middle","low","False","False",804,3200,NA
"AX9DKJZE40514","Wed Sep 30 2020 17:08:41 GMT-0400 (Eastern Daylight Time)","Wed Sep 30 2020 17:26:57 GMT-0400 (Eastern Daylight Time)","Mozilla/5.0 (Windows NT 10.0; WOW64) AppleWebKit/537.36 (KHTML, like Gecko) Chrome/83.0.4103.116 Safari/537.36",135,"[0.9, 0.5, 0.1]","[0.8, 0.4, 0.2]","[u'black', u'blue', u'red']","[u'left', u'middle', u'right']","[0.8, 0.4, 0.2]","[u'high', u'low', u'medium']","blue",50,"middle","low","False","False",11309,3150,NA
"AX9DKJZE40514","Wed Sep 30 2020 17:08:41 GMT-0400 (Eastern Daylight Time)","Wed Sep 30 2020 17:26:57 GMT-0400 (Eastern Daylight Time)","Mozilla/5.0 (Windows NT 10.0; WOW64) AppleWebKit/537.36 (KHTML, like Gecko) Chrome/83.0.4103.116 Safari/537.36",136,"[0.9, 0.5, 0.1]","[0.8, 0.4, 0.2]","[u'black', u'blue', u'red']","[u'left', u'middle', u'right']","[0.8, 0.4, 0.2]","[u'high', u'low', u'medium']","red",51,"right","medium","True","False",238,3250,NA
"AX9DKJZE40514","Wed Sep 30 2020 17:08:41 GMT-0400 (Eastern Daylight Time)","Wed Sep 30 2020 17:26:57 GMT-0400 (Eastern Daylight Time)","Mozilla/5.0 (Windows NT 10.0; WOW64) AppleWebKit/537.36 (KHTML, like Gecko) Chrome/83.0.4103.116 Safari/537.36",137,"[0.9, 0.5, 0.1]","[0.8, 0.4, 0.2]","[u'black', u'blue', u'red']","[u'left', u'middle', u'right']","[0.8, 0.4, 0.2]","[u'high', u'low', u'medium']","red",51,"right","medium","False","False",268,3200,NA
"AX9DKJZE40514","Wed Sep 30 2020 17:08:41 GMT-0400 (Eastern Daylight Time)","Wed Sep 30 2020 17:26:57 GMT-0400 (Eastern Daylight Time)","Mozilla/5.0 (Windows NT 10.0; WOW64) AppleWebKit/537.36 (KHTML, like Gecko) Chrome/83.0.4103.116 Safari/537.36",138,"[0.9, 0.5, 0.1]","[0.8, 0.4, 0.2]","[u'black', u'blue', u'red']","[u'left', u'middle', u'right']","[0.8, 0.4, 0.2]","[u'high', u'low', u'medium']","black",49,"left","high","True","False",943,3300,NA
"AX9DKJZE40514","Wed Sep 30 2020 17:08:41 GMT-0400 (Eastern Daylight Time)","Wed Sep 30 2020 17:26:57 GMT-0400 (Eastern Daylight Time)","Mozilla/5.0 (Windows NT 10.0; WOW64) AppleWebKit/537.36 (KHTML, like Gecko) Chrome/83.0.4103.116 Safari/537.36",139,"[0.9, 0.5, 0.1]","[0.8, 0.4, 0.2]","[u'black', u'blue', u'red']","[u'left', u'middle', u'right']","[0.8, 0.4, 0.2]","[u'high', u'low', u'medium']","blue",50,"middle","low","True","False",618,3400,NA
"AX9DKJZE40514","Wed Sep 30 2020 17:08:41 GMT-0400 (Eastern Daylight Time)","Wed Sep 30 2020 17:26:57 GMT-0400 (Eastern Daylight Time)","Mozilla/5.0 (Windows NT 10.0; WOW64) AppleWebKit/537.36 (KHTML, like Gecko) Chrome/83.0.4103.116 Safari/537.36",140,"[0.9, 0.5, 0.1]","[0.8, 0.4, 0.2]","[u'black', u'blue', u'red']","[u'left', u'middle', u'right']","[0.8, 0.4, 0.2]","[u'high', u'low', u'medium']","red",51,"right","medium","False","False",665,3350,NA
"AX9DKJZE40514","Wed Sep 30 2020 17:08:41 GMT-0400 (Eastern Daylight Time)","Wed Sep 30 2020 17:26:57 GMT-0400 (Eastern Daylight Time)","Mozilla/5.0 (Windows NT 10.0; WOW64) AppleWebKit/537.36 (KHTML, like Gecko) Chrome/83.0.4103.116 Safari/537.36",141,"[0.9, 0.5, 0.1]","[0.8, 0.4, 0.2]","[u'black', u'blue', u'red']","[u'left', u'middle', u'right']","[0.8, 0.4, 0.2]","[u'high', u'low', u'medium']","blue",50,"middle","low","False","False",12741,3300,NA
"AX9DKJZE40514","Wed Sep 30 2020 17:08:41 GMT-0400 (Eastern Daylight Time)","Wed Sep 30 2020 17:26:57 GMT-0400 (Eastern Daylight Time)","Mozilla/5.0 (Windows NT 10.0; WOW64) AppleWebKit/537.36 (KHTML, like Gecko) Chrome/83.0.4103.116 Safari/537.36",142,"[0.9, 0.5, 0.1]","[0.8, 0.4, 0.2]","[u'black', u'blue', u'red']","[u'left', u'middle', u'right']","[0.8, 0.4, 0.2]","[u'high', u'low', u'medium']","red",51,"right","medium","False","False",457,3250,NA
"AX9DKJZE40514","Wed Sep 30 2020 17:08:41 GMT-0400 (Eastern Daylight Time)","Wed Sep 30 2020 17:26:57 GMT-0400 (Eastern Daylight Time)","Mozilla/5.0 (Windows NT 10.0; WOW64) AppleWebKit/537.36 (KHTML, like Gecko) Chrome/83.0.4103.116 Safari/537.36",143,"[0.9, 0.5, 0.1]","[0.8, 0.4, 0.2]","[u'black', u'blue', u'red']","[u'left', u'middle', u'right']","[0.8, 0.4, 0.2]","[u'high', u'low', u'medium']","blue",50,"middle","low","True","False",49,3350,NA
"AX9DKJZE40514","Wed Sep 30 2020 17:08:41 GMT-0400 (Eastern Daylight Time)","Wed Sep 30 2020 17:26:57 GMT-0400 (Eastern Daylight Time)","Mozilla/5.0 (Windows NT 10.0; WOW64) AppleWebKit/537.36 (KHTML, like Gecko) Chrome/83.0.4103.116 Safari/537.36",144,"[0.9, 0.5, 0.1]","[0.8, 0.4, 0.2]","[u'black', u'blue', u'red']","[u'left', u'middle', u'right']","[0.8, 0.4, 0.2]","[u'high', u'low', u'medium']","blue",50,"middle","low","False","False",927,3300,NA
"AX9DKJZE40514","Wed Sep 30 2020 17:08:41 GMT-0400 (Eastern Daylight Time)","Wed Sep 30 2020 17:26:57 GMT-0400 (Eastern Daylight Time)","Mozilla/5.0 (Windows NT 10.0; WOW64) AppleWebKit/537.36 (KHTML, like Gecko) Chrome/83.0.4103.116 Safari/537.36",145,"[0.9, 0.5, 0.1]","[0.8, 0.4, 0.2]","[u'black', u'blue', u'red']","[u'left', u'middle', u'right']","[0.8, 0.4, 0.2]","[u'high', u'low', u'medium']","black",49,"left","high","True","False",593,3400,NA
"AX9DKJZE40514","Wed Sep 30 2020 17:08:41 GMT-0400 (Eastern Daylight Time)","Wed Sep 30 2020 17:26:57 GMT-0400 (Eastern Daylight Time)","Mozilla/5.0 (Windows NT 10.0; WOW64) AppleWebKit/537.36 (KHTML, like Gecko) Chrome/83.0.4103.116 Safari/537.36",146,"[0.9, 0.5, 0.1]","[0.8, 0.4, 0.2]","[u'black', u'blue', u'red']","[u'left', u'middle', u'right']","[0.8, 0.4, 0.2]","[u'high', u'low', u'medium']","black",49,"left","high","True","False",581,3500,NA
"AX9DKJZE40514","Wed Sep 30 2020 17:08:41 GMT-0400 (Eastern Daylight Time)","Wed Sep 30 2020 17:26:57 GMT-0400 (Eastern Daylight Time)","Mozilla/5.0 (Windows NT 10.0; WOW64) AppleWebKit/537.36 (KHTML, like Gecko) Chrome/83.0.4103.116 Safari/537.36",147,"[0.9, 0.5, 0.1]","[0.8, 0.4, 0.2]","[u'black', u'blue', u'red']","[u'left', u'middle', u'right']","[0.8, 0.4, 0.2]","[u'high', u'low', u'medium']","black",49,"left","high","True","False",587,3600,NA
"AX9DKJZE40514","Wed Sep 30 2020 17:08:41 GMT-0400 (Eastern Daylight Time)","Wed Sep 30 2020 17:26:57 GMT-0400 (Eastern Daylight Time)","Mozilla/5.0 (Windows NT 10.0; WOW64) AppleWebKit/537.36 (KHTML, like Gecko) Chrome/83.0.4103.116 Safari/537.36",148,"[0.9, 0.5, 0.1]","[0.8, 0.4, 0.2]","[u'black', u'blue', u'red']","[u'left', u'middle', u'right']","[0.8, 0.4, 0.2]","[u'high', u'low', u'medium']","black",49,"left","high","True","False",507,3700,NA
"AX9DKJZE40514","Wed Sep 30 2020 17:08:41 GMT-0400 (Eastern Daylight Time)","Wed Sep 30 2020 17:26:57 GMT-0400 (Eastern Daylight Time)","Mozilla/5.0 (Windows NT 10.0; WOW64) AppleWebKit/537.36 (KHTML, like Gecko) Chrome/83.0.4103.116 Safari/537.36",149,"[0.9, 0.5, 0.1]","[0.8, 0.4, 0.2]","[u'black', u'blue', u'red']","[u'left', u'middle', u'right']","[0.8, 0.4, 0.2]","[u'high', u'low', u'medium']","black",49,"left","high","False","False",634,3650,NA
"AX9DKJZE40514","Wed Sep 30 2020 17:08:41 GMT-0400 (Eastern Daylight Time)","Wed Sep 30 2020 17:26:57 GMT-0400 (Eastern Daylight Time)","Mozilla/5.0 (Windows NT 10.0; WOW64) AppleWebKit/537.36 (KHTML, like Gecko) Chrome/83.0.4103.116 Safari/537.36",150,"[0.9, 0.5, 0.1]","[0.8, 0.4, 0.2]","[u'black', u'blue', u'red']","[u'left', u'middle', u'right']","[0.8, 0.4, 0.2]","[u'high', u'low', u'medium']","blue",50,"middle","low","False","False",1267,3600,NA
"AX9DKJZE40514","Wed Sep 30 2020 17:08:41 GMT-0400 (Eastern Daylight Time)","Wed Sep 30 2020 17:26:57 GMT-0400 (Eastern Daylight Time)","Mozilla/5.0 (Windows NT 10.0; WOW64) AppleWebKit/537.36 (KHTML, like Gecko) Chrome/83.0.4103.116 Safari/537.36",151,"[0.9, 0.5, 0.1]","[0.8, 0.4, 0.2]","[u'black', u'blue', u'red']","[u'left', u'middle', u'right']","[0.8, 0.4, 0.2]","[u'high', u'low', u'medium']","blue",50,"middle","low","False","False",314,3550,NA
"AX9DKJZE40514","Wed Sep 30 2020 17:08:41 GMT-0400 (Eastern Daylight Time)","Wed Sep 30 2020 17:26:57 GMT-0400 (Eastern Daylight Time)","Mozilla/5.0 (Windows NT 10.0; WOW64) AppleWebKit/537.36 (KHTML, like Gecko) Chrome/83.0.4103.116 Safari/537.36",152,"[0.9, 0.5, 0.1]","[0.8, 0.4, 0.2]","[u'black', u'blue', u'red']","[u'left', u'middle', u'right']","[0.8, 0.4, 0.2]","[u'high', u'low', u'medium']","red",51,"right","medium","False","False",586,3500,NA
"AX9DKJZE40514","Wed Sep 30 2020 17:08:41 GMT-0400 (Eastern Daylight Time)","Wed Sep 30 2020 17:26:57 GMT-0400 (Eastern Daylight Time)","Mozilla/5.0 (Windows NT 10.0; WOW64) AppleWebKit/537.36 (KHTML, like Gecko) Chrome/83.0.4103.116 Safari/537.36",153,"[0.9, 0.5, 0.1]","[0.8, 0.4, 0.2]","[u'black', u'blue', u'red']","[u'left', u'middle', u'right']","[0.8, 0.4, 0.2]","[u'high', u'low', u'medium']","blue",50,"middle","low","True","False",633,3600,NA
"AX9DKJZE40514","Wed Sep 30 2020 17:08:41 GMT-0400 (Eastern Daylight Time)","Wed Sep 30 2020 17:26:57 GMT-0400 (Eastern Daylight Time)","Mozilla/5.0 (Windows NT 10.0; WOW64) AppleWebKit/537.36 (KHTML, like Gecko) Chrome/83.0.4103.116 Safari/537.36",154,"[0.9, 0.5, 0.1]","[0.8, 0.4, 0.2]","[u'black', u'blue', u'red']","[u'left', u'middle', u'right']","[0.8, 0.4, 0.2]","[u'high', u'low', u'medium']","blue",50,"middle","low","False","False",4611,3550,NA
"AX9DKJZE40514","Wed Sep 30 2020 17:08:41 GMT-0400 (Eastern Daylight Time)","Wed Sep 30 2020 17:26:57 GMT-0400 (Eastern Daylight Time)","Mozilla/5.0 (Windows NT 10.0; WOW64) AppleWebKit/537.36 (KHTML, like Gecko) Chrome/83.0.4103.116 Safari/537.36",155,"[0.9, 0.5, 0.1]","[0.8, 0.4, 0.2]","[u'black', u'blue', u'red']","[u'left', u'middle', u'right']","[0.8, 0.4, 0.2]","[u'high', u'low', u'medium']","red",51,"right","medium","True","False",1031,3650,NA
"AX9DKJZE40514","Wed Sep 30 2020 17:08:41 GMT-0400 (Eastern Daylight Time)","Wed Sep 30 2020 17:26:57 GMT-0400 (Eastern Daylight Time)","Mozilla/5.0 (Windows NT 10.0; WOW64) AppleWebKit/537.36 (KHTML, like Gecko) Chrome/83.0.4103.116 Safari/537.36",156,"[0.9, 0.5, 0.1]","[0.8, 0.4, 0.2]","[u'black', u'blue', u'red']","[u'left', u'middle', u'right']","[0.8, 0.4, 0.2]","[u'high', u'low', u'medium']","blue",50,"middle","low","True","False",10835,3750,NA
"AX9DKJZE40514","Wed Sep 30 2020 17:08:41 GMT-0400 (Eastern Daylight Time)","Wed Sep 30 2020 17:26:57 GMT-0400 (Eastern Daylight Time)","Mozilla/5.0 (Windows NT 10.0; WOW64) AppleWebKit/537.36 (KHTML, like Gecko) Chrome/83.0.4103.116 Safari/537.36",157,"[0.9, 0.5, 0.1]","[0.8, 0.4, 0.2]","[u'black', u'blue', u'red']","[u'left', u'middle', u'right']","[0.8, 0.4, 0.2]","[u'high', u'low', u'medium']","blue",50,"middle","low","False","False",699,3700,NA
"AX9DKJZE40514","Wed Sep 30 2020 17:08:41 GMT-0400 (Eastern Daylight Time)","Wed Sep 30 2020 17:26:57 GMT-0400 (Eastern Daylight Time)","Mozilla/5.0 (Windows NT 10.0; WOW64) AppleWebKit/537.36 (KHTML, like Gecko) Chrome/83.0.4103.116 Safari/537.36",158,"[0.9, 0.5, 0.1]","[0.8, 0.4, 0.2]","[u'black', u'blue', u'red']","[u'left', u'middle', u'right']","[0.8, 0.4, 0.2]","[u'high', u'low', u'medium']","red",51,"right","medium","False","False",750,3650,NA
"AX9DKJZE40514","Wed Sep 30 2020 17:08:41 GMT-0400 (Eastern Daylight Time)","Wed Sep 30 2020 17:26:57 GMT-0400 (Eastern Daylight Time)","Mozilla/5.0 (Windows NT 10.0; WOW64) AppleWebKit/537.36 (KHTML, like Gecko) Chrome/83.0.4103.116 Safari/537.36",159,"[0.9, 0.5, 0.1]","[0.8, 0.4, 0.2]","[u'black', u'blue', u'red']","[u'left', u'middle', u'right']","[0.8, 0.4, 0.2]","[u'high', u'low', u'medium']","blue",50,"middle","low","False","False",478,3600,NA
"AX9DKJZE40514","Wed Sep 30 2020 17:08:41 GMT-0400 (Eastern Daylight Time)","Wed Sep 30 2020 17:26:57 GMT-0400 (Eastern Daylight Time)","Mozilla/5.0 (Windows NT 10.0; WOW64) AppleWebKit/537.36 (KHTML, like Gecko) Chrome/83.0.4103.116 Safari/537.36",160,"[0.9, 0.5, 0.1]","[0.8, 0.4, 0.2]","[u'black', u'blue', u'red']","[u'left', u'middle', u'right']","[0.8, 0.4, 0.2]","[u'high', u'low', u'medium']","black",49,"left","high","True","False",965,3700,NA
