"src_subject_id","start_time","end_time","browser","index","first_half_probabilities","second_half_probabilities","deck_color","deck_position","deck_probabilities","deck_contingencies","response_color","key_press","response_position","response_probability","reward_type","trial_type","rt","reward_tally","exclusion_reason"
"A2NHFSO7GMM8QR","Wed Sep 30 2020 11:56:50 GMT-0700 (Pacific Daylight Time)","Wed Sep 30 2020 12:09:06 GMT-0700 (Pacific Daylight Time)","Mozilla/5.0 (Windows NT 6.1; Win64; x64) AppleWebKit/537.36 (KHTML, like Gecko) Chrome/86.0.4240.53 Safari/537.36",1,"[0.9, 0.5, 0.1]","[0.8, 0.4, 0.2]","[u'blue', u'black', u'red']","[u'left', u'middle', u'right']","[0.9, 0.5, 0.1]","[u'low', u'medium', u'high']","black",50,"middle","medium","False","False",1781,-50,NA
"A2NHFSO7GMM8QR","Wed Sep 30 2020 11:56:50 GMT-0700 (Pacific Daylight Time)","Wed Sep 30 2020 12:09:06 GMT-0700 (Pacific Daylight Time)","Mozilla/5.0 (Windows NT 6.1; Win64; x64) AppleWebKit/537.36 (KHTML, like Gecko) Chrome/86.0.4240.53 Safari/537.36",2,"[0.9, 0.5, 0.1]","[0.8, 0.4, 0.2]","[u'blue', u'black', u'red']","[u'left', u'middle', u'right']","[0.9, 0.5, 0.1]","[u'low', u'medium', u'high']","red",51,"right","high","True","False",432,50,NA
"A2NHFSO7GMM8QR","Wed Sep 30 2020 11:56:50 GMT-0700 (Pacific Daylight Time)","Wed Sep 30 2020 12:09:06 GMT-0700 (Pacific Daylight Time)","Mozilla/5.0 (Windows NT 6.1; Win64; x64) AppleWebKit/537.36 (KHTML, like Gecko) Chrome/86.0.4240.53 Safari/537.36",3,"[0.9, 0.5, 0.1]","[0.8, 0.4, 0.2]","[u'blue', u'black', u'red']","[u'left', u'middle', u'right']","[0.9, 0.5, 0.1]","[u'low', u'medium', u'high']","black",50,"middle","medium","True","False",683,150,NA
"A2NHFSO7GMM8QR","Wed Sep 30 2020 11:56:50 GMT-0700 (Pacific Daylight Time)","Wed Sep 30 2020 12:09:06 GMT-0700 (Pacific Daylight Time)","Mozilla/5.0 (Windows NT 6.1; Win64; x64) AppleWebKit/537.36 (KHTML, like Gecko) Chrome/86.0.4240.53 Safari/537.36",4,"[0.9, 0.5, 0.1]","[0.8, 0.4, 0.2]","[u'blue', u'black', u'red']","[u'left', u'middle', u'right']","[0.9, 0.5, 0.1]","[u'low', u'medium', u'high']","blue",49,"left","low","False","False",273,100,NA
"A2NHFSO7GMM8QR","Wed Sep 30 2020 11:56:50 GMT-0700 (Pacific Daylight Time)","Wed Sep 30 2020 12:09:06 GMT-0700 (Pacific Daylight Time)","Mozilla/5.0 (Windows NT 6.1; Win64; x64) AppleWebKit/537.36 (KHTML, like Gecko) Chrome/86.0.4240.53 Safari/537.36",5,"[0.9, 0.5, 0.1]","[0.8, 0.4, 0.2]","[u'blue', u'black', u'red']","[u'left', u'middle', u'right']","[0.9, 0.5, 0.1]","[u'low', u'medium', u'high']","red",51,"right","high","True","False",565,200,NA
"A2NHFSO7GMM8QR","Wed Sep 30 2020 11:56:50 GMT-0700 (Pacific Daylight Time)","Wed Sep 30 2020 12:09:06 GMT-0700 (Pacific Daylight Time)","Mozilla/5.0 (Windows NT 6.1; Win64; x64) AppleWebKit/537.36 (KHTML, like Gecko) Chrome/86.0.4240.53 Safari/537.36",6,"[0.9, 0.5, 0.1]","[0.8, 0.4, 0.2]","[u'blue', u'black', u'red']","[u'left', u'middle', u'right']","[0.9, 0.5, 0.1]","[u'low', u'medium', u'high']","red",51,"right","high","True","False",488,300,NA
"A2NHFSO7GMM8QR","Wed Sep 30 2020 11:56:50 GMT-0700 (Pacific Daylight Time)","Wed Sep 30 2020 12:09:06 GMT-0700 (Pacific Daylight Time)","Mozilla/5.0 (Windows NT 6.1; Win64; x64) AppleWebKit/537.36 (KHTML, like Gecko) Chrome/86.0.4240.53 Safari/537.36",7,"[0.9, 0.5, 0.1]","[0.8, 0.4, 0.2]","[u'blue', u'black', u'red']","[u'left', u'middle', u'right']","[0.9, 0.5, 0.1]","[u'low', u'medium', u'high']","black",50,"middle","medium","False","False",347,250,NA
"A2NHFSO7GMM8QR","Wed Sep 30 2020 11:56:50 GMT-0700 (Pacific Daylight Time)","Wed Sep 30 2020 12:09:06 GMT-0700 (Pacific Daylight Time)","Mozilla/5.0 (Windows NT 6.1; Win64; x64) AppleWebKit/537.36 (KHTML, like Gecko) Chrome/86.0.4240.53 Safari/537.36",8,"[0.9, 0.5, 0.1]","[0.8, 0.4, 0.2]","[u'blue', u'black', u'red']","[u'left', u'middle', u'right']","[0.9, 0.5, 0.1]","[u'low', u'medium', u'high']","black",50,"middle","medium","True","False",47,350,NA
"A2NHFSO7GMM8QR","Wed Sep 30 2020 11:56:50 GMT-0700 (Pacific Daylight Time)","Wed Sep 30 2020 12:09:06 GMT-0700 (Pacific Daylight Time)","Mozilla/5.0 (Windows NT 6.1; Win64; x64) AppleWebKit/537.36 (KHTML, like Gecko) Chrome/86.0.4240.53 Safari/537.36",9,"[0.9, 0.5, 0.1]","[0.8, 0.4, 0.2]","[u'blue', u'black', u'red']","[u'left', u'middle', u'right']","[0.9, 0.5, 0.1]","[u'low', u'medium', u'high']","blue",49,"left","low","True","False",218,450,NA
"A2NHFSO7GMM8QR","Wed Sep 30 2020 11:56:50 GMT-0700 (Pacific Daylight Time)","Wed Sep 30 2020 12:09:06 GMT-0700 (Pacific Daylight Time)","Mozilla/5.0 (Windows NT 6.1; Win64; x64) AppleWebKit/537.36 (KHTML, like Gecko) Chrome/86.0.4240.53 Safari/537.36",10,"[0.9, 0.5, 0.1]","[0.8, 0.4, 0.2]","[u'blue', u'black', u'red']","[u'left', u'middle', u'right']","[0.9, 0.5, 0.1]","[u'low', u'medium', u'high']","blue",49,"left","low","False","False",135,400,NA
"A2NHFSO7GMM8QR","Wed Sep 30 2020 11:56:50 GMT-0700 (Pacific Daylight Time)","Wed Sep 30 2020 12:09:06 GMT-0700 (Pacific Daylight Time)","Mozilla/5.0 (Windows NT 6.1; Win64; x64) AppleWebKit/537.36 (KHTML, like Gecko) Chrome/86.0.4240.53 Safari/537.36",11,"[0.9, 0.5, 0.1]","[0.8, 0.4, 0.2]","[u'blue', u'black', u'red']","[u'left', u'middle', u'right']","[0.9, 0.5, 0.1]","[u'low', u'medium', u'high']","black",50,"middle","medium","False","False",70,350,NA
"A2NHFSO7GMM8QR","Wed Sep 30 2020 11:56:50 GMT-0700 (Pacific Daylight Time)","Wed Sep 30 2020 12:09:06 GMT-0700 (Pacific Daylight Time)","Mozilla/5.0 (Windows NT 6.1; Win64; x64) AppleWebKit/537.36 (KHTML, like Gecko) Chrome/86.0.4240.53 Safari/537.36",12,"[0.9, 0.5, 0.1]","[0.8, 0.4, 0.2]","[u'blue', u'black', u'red']","[u'left', u'middle', u'right']","[0.9, 0.5, 0.1]","[u'low', u'medium', u'high']","black",50,"middle","medium","True","False",75,450,NA
"A2NHFSO7GMM8QR","Wed Sep 30 2020 11:56:50 GMT-0700 (Pacific Daylight Time)","Wed Sep 30 2020 12:09:06 GMT-0700 (Pacific Daylight Time)","Mozilla/5.0 (Windows NT 6.1; Win64; x64) AppleWebKit/537.36 (KHTML, like Gecko) Chrome/86.0.4240.53 Safari/537.36",13,"[0.9, 0.5, 0.1]","[0.8, 0.4, 0.2]","[u'blue', u'black', u'red']","[u'left', u'middle', u'right']","[0.9, 0.5, 0.1]","[u'low', u'medium', u'high']","red",51,"right","high","True","False",215,550,NA
"A2NHFSO7GMM8QR","Wed Sep 30 2020 11:56:50 GMT-0700 (Pacific Daylight Time)","Wed Sep 30 2020 12:09:06 GMT-0700 (Pacific Daylight Time)","Mozilla/5.0 (Windows NT 6.1; Win64; x64) AppleWebKit/537.36 (KHTML, like Gecko) Chrome/86.0.4240.53 Safari/537.36",14,"[0.9, 0.5, 0.1]","[0.8, 0.4, 0.2]","[u'blue', u'black', u'red']","[u'left', u'middle', u'right']","[0.9, 0.5, 0.1]","[u'low', u'medium', u'high']","black",50,"middle","medium","True","False",578,650,NA
"A2NHFSO7GMM8QR","Wed Sep 30 2020 11:56:50 GMT-0700 (Pacific Daylight Time)","Wed Sep 30 2020 12:09:06 GMT-0700 (Pacific Daylight Time)","Mozilla/5.0 (Windows NT 6.1; Win64; x64) AppleWebKit/537.36 (KHTML, like Gecko) Chrome/86.0.4240.53 Safari/537.36",15,"[0.9, 0.5, 0.1]","[0.8, 0.4, 0.2]","[u'blue', u'black', u'red']","[u'left', u'middle', u'right']","[0.9, 0.5, 0.1]","[u'low', u'medium', u'high']","blue",49,"left","low","False","False",86,600,NA
"A2NHFSO7GMM8QR","Wed Sep 30 2020 11:56:50 GMT-0700 (Pacific Daylight Time)","Wed Sep 30 2020 12:09:06 GMT-0700 (Pacific Daylight Time)","Mozilla/5.0 (Windows NT 6.1; Win64; x64) AppleWebKit/537.36 (KHTML, like Gecko) Chrome/86.0.4240.53 Safari/537.36",16,"[0.9, 0.5, 0.1]","[0.8, 0.4, 0.2]","[u'blue', u'black', u'red']","[u'left', u'middle', u'right']","[0.9, 0.5, 0.1]","[u'low', u'medium', u'high']","red",51,"right","high","True","False",294,700,NA
"A2NHFSO7GMM8QR","Wed Sep 30 2020 11:56:50 GMT-0700 (Pacific Daylight Time)","Wed Sep 30 2020 12:09:06 GMT-0700 (Pacific Daylight Time)","Mozilla/5.0 (Windows NT 6.1; Win64; x64) AppleWebKit/537.36 (KHTML, like Gecko) Chrome/86.0.4240.53 Safari/537.36",17,"[0.9, 0.5, 0.1]","[0.8, 0.4, 0.2]","[u'blue', u'black', u'red']","[u'left', u'middle', u'right']","[0.9, 0.5, 0.1]","[u'low', u'medium', u'high']","red",51,"right","high","True","False",59,800,NA
"A2NHFSO7GMM8QR","Wed Sep 30 2020 11:56:50 GMT-0700 (Pacific Daylight Time)","Wed Sep 30 2020 12:09:06 GMT-0700 (Pacific Daylight Time)","Mozilla/5.0 (Windows NT 6.1; Win64; x64) AppleWebKit/537.36 (KHTML, like Gecko) Chrome/86.0.4240.53 Safari/537.36",18,"[0.9, 0.5, 0.1]","[0.8, 0.4, 0.2]","[u'blue', u'black', u'red']","[u'left', u'middle', u'right']","[0.9, 0.5, 0.1]","[u'low', u'medium', u'high']","blue",49,"left","low","False","False",712,750,NA
"A2NHFSO7GMM8QR","Wed Sep 30 2020 11:56:50 GMT-0700 (Pacific Daylight Time)","Wed Sep 30 2020 12:09:06 GMT-0700 (Pacific Daylight Time)","Mozilla/5.0 (Windows NT 6.1; Win64; x64) AppleWebKit/537.36 (KHTML, like Gecko) Chrome/86.0.4240.53 Safari/537.36",19,"[0.9, 0.5, 0.1]","[0.8, 0.4, 0.2]","[u'blue', u'black', u'red']","[u'left', u'middle', u'right']","[0.9, 0.5, 0.1]","[u'low', u'medium', u'high']","black",50,"middle","medium","True","False",594,850,NA
"A2NHFSO7GMM8QR","Wed Sep 30 2020 11:56:50 GMT-0700 (Pacific Daylight Time)","Wed Sep 30 2020 12:09:06 GMT-0700 (Pacific Daylight Time)","Mozilla/5.0 (Windows NT 6.1; Win64; x64) AppleWebKit/537.36 (KHTML, like Gecko) Chrome/86.0.4240.53 Safari/537.36",20,"[0.9, 0.5, 0.1]","[0.8, 0.4, 0.2]","[u'blue', u'black', u'red']","[u'left', u'middle', u'right']","[0.9, 0.5, 0.1]","[u'low', u'medium', u'high']","red",51,"right","high","True","False",594,950,NA
"A2NHFSO7GMM8QR","Wed Sep 30 2020 11:56:50 GMT-0700 (Pacific Daylight Time)","Wed Sep 30 2020 12:09:06 GMT-0700 (Pacific Daylight Time)","Mozilla/5.0 (Windows NT 6.1; Win64; x64) AppleWebKit/537.36 (KHTML, like Gecko) Chrome/86.0.4240.53 Safari/537.36",21,"[0.9, 0.5, 0.1]","[0.8, 0.4, 0.2]","[u'blue', u'black', u'red']","[u'left', u'middle', u'right']","[0.9, 0.5, 0.1]","[u'low', u'medium', u'high']","black",50,"middle","medium","True","False",336,1050,NA
"A2NHFSO7GMM8QR","Wed Sep 30 2020 11:56:50 GMT-0700 (Pacific Daylight Time)","Wed Sep 30 2020 12:09:06 GMT-0700 (Pacific Daylight Time)","Mozilla/5.0 (Windows NT 6.1; Win64; x64) AppleWebKit/537.36 (KHTML, like Gecko) Chrome/86.0.4240.53 Safari/537.36",22,"[0.9, 0.5, 0.1]","[0.8, 0.4, 0.2]","[u'blue', u'black', u'red']","[u'left', u'middle', u'right']","[0.9, 0.5, 0.1]","[u'low', u'medium', u'high']","red",51,"right","high","True","False",274,1150,NA
"A2NHFSO7GMM8QR","Wed Sep 30 2020 11:56:50 GMT-0700 (Pacific Daylight Time)","Wed Sep 30 2020 12:09:06 GMT-0700 (Pacific Daylight Time)","Mozilla/5.0 (Windows NT 6.1; Win64; x64) AppleWebKit/537.36 (KHTML, like Gecko) Chrome/86.0.4240.53 Safari/537.36",23,"[0.9, 0.5, 0.1]","[0.8, 0.4, 0.2]","[u'blue', u'black', u'red']","[u'left', u'middle', u'right']","[0.9, 0.5, 0.1]","[u'low', u'medium', u'high']","black",50,"middle","medium","False","False",101,1100,NA
"A2NHFSO7GMM8QR","Wed Sep 30 2020 11:56:50 GMT-0700 (Pacific Daylight Time)","Wed Sep 30 2020 12:09:06 GMT-0700 (Pacific Daylight Time)","Mozilla/5.0 (Windows NT 6.1; Win64; x64) AppleWebKit/537.36 (KHTML, like Gecko) Chrome/86.0.4240.53 Safari/537.36",24,"[0.9, 0.5, 0.1]","[0.8, 0.4, 0.2]","[u'blue', u'black', u'red']","[u'left', u'middle', u'right']","[0.9, 0.5, 0.1]","[u'low', u'medium', u'high']","blue",49,"left","low","False","False",637,1050,NA
"A2NHFSO7GMM8QR","Wed Sep 30 2020 11:56:50 GMT-0700 (Pacific Daylight Time)","Wed Sep 30 2020 12:09:06 GMT-0700 (Pacific Daylight Time)","Mozilla/5.0 (Windows NT 6.1; Win64; x64) AppleWebKit/537.36 (KHTML, like Gecko) Chrome/86.0.4240.53 Safari/537.36",25,"[0.9, 0.5, 0.1]","[0.8, 0.4, 0.2]","[u'blue', u'black', u'red']","[u'left', u'middle', u'right']","[0.9, 0.5, 0.1]","[u'low', u'medium', u'high']","red",51,"right","high","True","False",459,1150,NA
"A2NHFSO7GMM8QR","Wed Sep 30 2020 11:56:50 GMT-0700 (Pacific Daylight Time)","Wed Sep 30 2020 12:09:06 GMT-0700 (Pacific Daylight Time)","Mozilla/5.0 (Windows NT 6.1; Win64; x64) AppleWebKit/537.36 (KHTML, like Gecko) Chrome/86.0.4240.53 Safari/537.36",26,"[0.9, 0.5, 0.1]","[0.8, 0.4, 0.2]","[u'blue', u'black', u'red']","[u'left', u'middle', u'right']","[0.9, 0.5, 0.1]","[u'low', u'medium', u'high']","red",51,"right","high","True","False",290,1250,NA
"A2NHFSO7GMM8QR","Wed Sep 30 2020 11:56:50 GMT-0700 (Pacific Daylight Time)","Wed Sep 30 2020 12:09:06 GMT-0700 (Pacific Daylight Time)","Mozilla/5.0 (Windows NT 6.1; Win64; x64) AppleWebKit/537.36 (KHTML, like Gecko) Chrome/86.0.4240.53 Safari/537.36",27,"[0.9, 0.5, 0.1]","[0.8, 0.4, 0.2]","[u'blue', u'black', u'red']","[u'left', u'middle', u'right']","[0.9, 0.5, 0.1]","[u'low', u'medium', u'high']","red",51,"right","high","True","False",322,1350,NA
"A2NHFSO7GMM8QR","Wed Sep 30 2020 11:56:50 GMT-0700 (Pacific Daylight Time)","Wed Sep 30 2020 12:09:06 GMT-0700 (Pacific Daylight Time)","Mozilla/5.0 (Windows NT 6.1; Win64; x64) AppleWebKit/537.36 (KHTML, like Gecko) Chrome/86.0.4240.53 Safari/537.36",28,"[0.9, 0.5, 0.1]","[0.8, 0.4, 0.2]","[u'blue', u'black', u'red']","[u'left', u'middle', u'right']","[0.9, 0.5, 0.1]","[u'low', u'medium', u'high']","red",51,"right","high","True","False",427,1450,NA
"A2NHFSO7GMM8QR","Wed Sep 30 2020 11:56:50 GMT-0700 (Pacific Daylight Time)","Wed Sep 30 2020 12:09:06 GMT-0700 (Pacific Daylight Time)","Mozilla/5.0 (Windows NT 6.1; Win64; x64) AppleWebKit/537.36 (KHTML, like Gecko) Chrome/86.0.4240.53 Safari/537.36",29,"[0.9, 0.5, 0.1]","[0.8, 0.4, 0.2]","[u'blue', u'black', u'red']","[u'left', u'middle', u'right']","[0.9, 0.5, 0.1]","[u'low', u'medium', u'high']","red",51,"right","high","True","False",453,1550,NA
"A2NHFSO7GMM8QR","Wed Sep 30 2020 11:56:50 GMT-0700 (Pacific Daylight Time)","Wed Sep 30 2020 12:09:06 GMT-0700 (Pacific Daylight Time)","Mozilla/5.0 (Windows NT 6.1; Win64; x64) AppleWebKit/537.36 (KHTML, like Gecko) Chrome/86.0.4240.53 Safari/537.36",30,"[0.9, 0.5, 0.1]","[0.8, 0.4, 0.2]","[u'blue', u'black', u'red']","[u'left', u'middle', u'right']","[0.9, 0.5, 0.1]","[u'low', u'medium', u'high']","red",51,"right","high","True","False",329,1650,NA
"A2NHFSO7GMM8QR","Wed Sep 30 2020 11:56:50 GMT-0700 (Pacific Daylight Time)","Wed Sep 30 2020 12:09:06 GMT-0700 (Pacific Daylight Time)","Mozilla/5.0 (Windows NT 6.1; Win64; x64) AppleWebKit/537.36 (KHTML, like Gecko) Chrome/86.0.4240.53 Safari/537.36",31,"[0.9, 0.5, 0.1]","[0.8, 0.4, 0.2]","[u'blue', u'black', u'red']","[u'left', u'middle', u'right']","[0.9, 0.5, 0.1]","[u'low', u'medium', u'high']","red",51,"right","high","True","False",297,1750,NA
"A2NHFSO7GMM8QR","Wed Sep 30 2020 11:56:50 GMT-0700 (Pacific Daylight Time)","Wed Sep 30 2020 12:09:06 GMT-0700 (Pacific Daylight Time)","Mozilla/5.0 (Windows NT 6.1; Win64; x64) AppleWebKit/537.36 (KHTML, like Gecko) Chrome/86.0.4240.53 Safari/537.36",32,"[0.9, 0.5, 0.1]","[0.8, 0.4, 0.2]","[u'blue', u'black', u'red']","[u'left', u'middle', u'right']","[0.9, 0.5, 0.1]","[u'low', u'medium', u'high']","red",51,"right","high","False","False",269,1700,NA
"A2NHFSO7GMM8QR","Wed Sep 30 2020 11:56:50 GMT-0700 (Pacific Daylight Time)","Wed Sep 30 2020 12:09:06 GMT-0700 (Pacific Daylight Time)","Mozilla/5.0 (Windows NT 6.1; Win64; x64) AppleWebKit/537.36 (KHTML, like Gecko) Chrome/86.0.4240.53 Safari/537.36",33,"[0.9, 0.5, 0.1]","[0.8, 0.4, 0.2]","[u'blue', u'black', u'red']","[u'left', u'middle', u'right']","[0.9, 0.5, 0.1]","[u'low', u'medium', u'high']","red",51,"right","high","True","True",224,1800,NA
"A2NHFSO7GMM8QR","Wed Sep 30 2020 11:56:50 GMT-0700 (Pacific Daylight Time)","Wed Sep 30 2020 12:09:06 GMT-0700 (Pacific Daylight Time)","Mozilla/5.0 (Windows NT 6.1; Win64; x64) AppleWebKit/537.36 (KHTML, like Gecko) Chrome/86.0.4240.53 Safari/537.36",34,"[0.9, 0.5, 0.1]","[0.8, 0.4, 0.2]","[u'blue', u'black', u'red']","[u'left', u'middle', u'right']","[0.9, 0.5, 0.1]","[u'high', u'medium', u'low']","red",51,"right","low","False","False",268,1750,NA
"A2NHFSO7GMM8QR","Wed Sep 30 2020 11:56:50 GMT-0700 (Pacific Daylight Time)","Wed Sep 30 2020 12:09:06 GMT-0700 (Pacific Daylight Time)","Mozilla/5.0 (Windows NT 6.1; Win64; x64) AppleWebKit/537.36 (KHTML, like Gecko) Chrome/86.0.4240.53 Safari/537.36",35,"[0.9, 0.5, 0.1]","[0.8, 0.4, 0.2]","[u'blue', u'black', u'red']","[u'left', u'middle', u'right']","[0.9, 0.5, 0.1]","[u'high', u'medium', u'low']","black",50,"middle","medium","False","False",248,1700,NA
"A2NHFSO7GMM8QR","Wed Sep 30 2020 11:56:50 GMT-0700 (Pacific Daylight Time)","Wed Sep 30 2020 12:09:06 GMT-0700 (Pacific Daylight Time)","Mozilla/5.0 (Windows NT 6.1; Win64; x64) AppleWebKit/537.36 (KHTML, like Gecko) Chrome/86.0.4240.53 Safari/537.36",36,"[0.9, 0.5, 0.1]","[0.8, 0.4, 0.2]","[u'blue', u'black', u'red']","[u'left', u'middle', u'right']","[0.9, 0.5, 0.1]","[u'high', u'medium', u'low']","red",51,"right","low","True","False",230,1800,NA
"A2NHFSO7GMM8QR","Wed Sep 30 2020 11:56:50 GMT-0700 (Pacific Daylight Time)","Wed Sep 30 2020 12:09:06 GMT-0700 (Pacific Daylight Time)","Mozilla/5.0 (Windows NT 6.1; Win64; x64) AppleWebKit/537.36 (KHTML, like Gecko) Chrome/86.0.4240.53 Safari/537.36",37,"[0.9, 0.5, 0.1]","[0.8, 0.4, 0.2]","[u'blue', u'black', u'red']","[u'left', u'middle', u'right']","[0.9, 0.5, 0.1]","[u'high', u'medium', u'low']","red",51,"right","low","True","False",6,1900,NA
"A2NHFSO7GMM8QR","Wed Sep 30 2020 11:56:50 GMT-0700 (Pacific Daylight Time)","Wed Sep 30 2020 12:09:06 GMT-0700 (Pacific Daylight Time)","Mozilla/5.0 (Windows NT 6.1; Win64; x64) AppleWebKit/537.36 (KHTML, like Gecko) Chrome/86.0.4240.53 Safari/537.36",38,"[0.9, 0.5, 0.1]","[0.8, 0.4, 0.2]","[u'blue', u'black', u'red']","[u'left', u'middle', u'right']","[0.9, 0.5, 0.1]","[u'high', u'medium', u'low']","red",51,"right","low","False","False",287,1850,NA
"A2NHFSO7GMM8QR","Wed Sep 30 2020 11:56:50 GMT-0700 (Pacific Daylight Time)","Wed Sep 30 2020 12:09:06 GMT-0700 (Pacific Daylight Time)","Mozilla/5.0 (Windows NT 6.1; Win64; x64) AppleWebKit/537.36 (KHTML, like Gecko) Chrome/86.0.4240.53 Safari/537.36",39,"[0.9, 0.5, 0.1]","[0.8, 0.4, 0.2]","[u'blue', u'black', u'red']","[u'left', u'middle', u'right']","[0.9, 0.5, 0.1]","[u'high', u'medium', u'low']","black",50,"middle","medium","True","False",362,1950,NA
"A2NHFSO7GMM8QR","Wed Sep 30 2020 11:56:50 GMT-0700 (Pacific Daylight Time)","Wed Sep 30 2020 12:09:06 GMT-0700 (Pacific Daylight Time)","Mozilla/5.0 (Windows NT 6.1; Win64; x64) AppleWebKit/537.36 (KHTML, like Gecko) Chrome/86.0.4240.53 Safari/537.36",40,"[0.9, 0.5, 0.1]","[0.8, 0.4, 0.2]","[u'blue', u'black', u'red']","[u'left', u'middle', u'right']","[0.9, 0.5, 0.1]","[u'high', u'medium', u'low']","blue",49,"left","high","True","False",470,2050,NA
"A2NHFSO7GMM8QR","Wed Sep 30 2020 11:56:50 GMT-0700 (Pacific Daylight Time)","Wed Sep 30 2020 12:09:06 GMT-0700 (Pacific Daylight Time)","Mozilla/5.0 (Windows NT 6.1; Win64; x64) AppleWebKit/537.36 (KHTML, like Gecko) Chrome/86.0.4240.53 Safari/537.36",41,"[0.9, 0.5, 0.1]","[0.8, 0.4, 0.2]","[u'blue', u'black', u'red']","[u'left', u'middle', u'right']","[0.9, 0.5, 0.1]","[u'medium', u'low', u'high']","black",50,"middle","low","False","False",2918,2000,NA
"A2NHFSO7GMM8QR","Wed Sep 30 2020 11:56:50 GMT-0700 (Pacific Daylight Time)","Wed Sep 30 2020 12:09:06 GMT-0700 (Pacific Daylight Time)","Mozilla/5.0 (Windows NT 6.1; Win64; x64) AppleWebKit/537.36 (KHTML, like Gecko) Chrome/86.0.4240.53 Safari/537.36",42,"[0.9, 0.5, 0.1]","[0.8, 0.4, 0.2]","[u'blue', u'black', u'red']","[u'left', u'middle', u'right']","[0.9, 0.5, 0.1]","[u'medium', u'low', u'high']","black",50,"middle","low","False","False",294,1950,NA
"A2NHFSO7GMM8QR","Wed Sep 30 2020 11:56:50 GMT-0700 (Pacific Daylight Time)","Wed Sep 30 2020 12:09:06 GMT-0700 (Pacific Daylight Time)","Mozilla/5.0 (Windows NT 6.1; Win64; x64) AppleWebKit/537.36 (KHTML, like Gecko) Chrome/86.0.4240.53 Safari/537.36",43,"[0.9, 0.5, 0.1]","[0.8, 0.4, 0.2]","[u'blue', u'black', u'red']","[u'left', u'middle', u'right']","[0.9, 0.5, 0.1]","[u'medium', u'low', u'high']","red",51,"right","high","True","False",10,2050,NA
"A2NHFSO7GMM8QR","Wed Sep 30 2020 11:56:50 GMT-0700 (Pacific Daylight Time)","Wed Sep 30 2020 12:09:06 GMT-0700 (Pacific Daylight Time)","Mozilla/5.0 (Windows NT 6.1; Win64; x64) AppleWebKit/537.36 (KHTML, like Gecko) Chrome/86.0.4240.53 Safari/537.36",44,"[0.9, 0.5, 0.1]","[0.8, 0.4, 0.2]","[u'blue', u'black', u'red']","[u'left', u'middle', u'right']","[0.9, 0.5, 0.1]","[u'medium', u'low', u'high']","red",51,"right","high","True","False",248,2150,NA
"A2NHFSO7GMM8QR","Wed Sep 30 2020 11:56:50 GMT-0700 (Pacific Daylight Time)","Wed Sep 30 2020 12:09:06 GMT-0700 (Pacific Daylight Time)","Mozilla/5.0 (Windows NT 6.1; Win64; x64) AppleWebKit/537.36 (KHTML, like Gecko) Chrome/86.0.4240.53 Safari/537.36",45,"[0.9, 0.5, 0.1]","[0.8, 0.4, 0.2]","[u'blue', u'black', u'red']","[u'left', u'middle', u'right']","[0.9, 0.5, 0.1]","[u'medium', u'low', u'high']","red",51,"right","high","True","False",140,2250,NA
"A2NHFSO7GMM8QR","Wed Sep 30 2020 11:56:50 GMT-0700 (Pacific Daylight Time)","Wed Sep 30 2020 12:09:06 GMT-0700 (Pacific Daylight Time)","Mozilla/5.0 (Windows NT 6.1; Win64; x64) AppleWebKit/537.36 (KHTML, like Gecko) Chrome/86.0.4240.53 Safari/537.36",46,"[0.9, 0.5, 0.1]","[0.8, 0.4, 0.2]","[u'blue', u'black', u'red']","[u'left', u'middle', u'right']","[0.9, 0.5, 0.1]","[u'medium', u'low', u'high']","red",51,"right","high","False","False",184,2200,NA
"A2NHFSO7GMM8QR","Wed Sep 30 2020 11:56:50 GMT-0700 (Pacific Daylight Time)","Wed Sep 30 2020 12:09:06 GMT-0700 (Pacific Daylight Time)","Mozilla/5.0 (Windows NT 6.1; Win64; x64) AppleWebKit/537.36 (KHTML, like Gecko) Chrome/86.0.4240.53 Safari/537.36",47,"[0.9, 0.5, 0.1]","[0.8, 0.4, 0.2]","[u'blue', u'black', u'red']","[u'left', u'middle', u'right']","[0.9, 0.5, 0.1]","[u'medium', u'low', u'high']","blue",49,"left","medium","True","False",147,2300,NA
"A2NHFSO7GMM8QR","Wed Sep 30 2020 11:56:50 GMT-0700 (Pacific Daylight Time)","Wed Sep 30 2020 12:09:06 GMT-0700 (Pacific Daylight Time)","Mozilla/5.0 (Windows NT 6.1; Win64; x64) AppleWebKit/537.36 (KHTML, like Gecko) Chrome/86.0.4240.53 Safari/537.36",48,"[0.9, 0.5, 0.1]","[0.8, 0.4, 0.2]","[u'blue', u'black', u'red']","[u'left', u'middle', u'right']","[0.9, 0.5, 0.1]","[u'medium', u'low', u'high']","blue",49,"left","medium","False","False",1459,2250,NA
"A2NHFSO7GMM8QR","Wed Sep 30 2020 11:56:50 GMT-0700 (Pacific Daylight Time)","Wed Sep 30 2020 12:09:06 GMT-0700 (Pacific Daylight Time)","Mozilla/5.0 (Windows NT 6.1; Win64; x64) AppleWebKit/537.36 (KHTML, like Gecko) Chrome/86.0.4240.53 Safari/537.36",49,"[0.9, 0.5, 0.1]","[0.8, 0.4, 0.2]","[u'blue', u'black', u'red']","[u'left', u'middle', u'right']","[0.9, 0.5, 0.1]","[u'medium', u'low', u'high']","black",50,"middle","low","False","False",260,2200,NA
"A2NHFSO7GMM8QR","Wed Sep 30 2020 11:56:50 GMT-0700 (Pacific Daylight Time)","Wed Sep 30 2020 12:09:06 GMT-0700 (Pacific Daylight Time)","Mozilla/5.0 (Windows NT 6.1; Win64; x64) AppleWebKit/537.36 (KHTML, like Gecko) Chrome/86.0.4240.53 Safari/537.36",50,"[0.9, 0.5, 0.1]","[0.8, 0.4, 0.2]","[u'blue', u'black', u'red']","[u'left', u'middle', u'right']","[0.9, 0.5, 0.1]","[u'medium', u'low', u'high']","red",51,"right","high","True","False",255,2300,NA
"A2NHFSO7GMM8QR","Wed Sep 30 2020 11:56:50 GMT-0700 (Pacific Daylight Time)","Wed Sep 30 2020 12:09:06 GMT-0700 (Pacific Daylight Time)","Mozilla/5.0 (Windows NT 6.1; Win64; x64) AppleWebKit/537.36 (KHTML, like Gecko) Chrome/86.0.4240.53 Safari/537.36",51,"[0.9, 0.5, 0.1]","[0.8, 0.4, 0.2]","[u'blue', u'black', u'red']","[u'left', u'middle', u'right']","[0.9, 0.5, 0.1]","[u'medium', u'low', u'high']","red",51,"right","high","True","False",389,2400,NA
"A2NHFSO7GMM8QR","Wed Sep 30 2020 11:56:50 GMT-0700 (Pacific Daylight Time)","Wed Sep 30 2020 12:09:06 GMT-0700 (Pacific Daylight Time)","Mozilla/5.0 (Windows NT 6.1; Win64; x64) AppleWebKit/537.36 (KHTML, like Gecko) Chrome/86.0.4240.53 Safari/537.36",52,"[0.9, 0.5, 0.1]","[0.8, 0.4, 0.2]","[u'blue', u'black', u'red']","[u'left', u'middle', u'right']","[0.9, 0.5, 0.1]","[u'medium', u'low', u'high']","red",51,"right","high","True","False",371,2500,NA
"A2NHFSO7GMM8QR","Wed Sep 30 2020 11:56:50 GMT-0700 (Pacific Daylight Time)","Wed Sep 30 2020 12:09:06 GMT-0700 (Pacific Daylight Time)","Mozilla/5.0 (Windows NT 6.1; Win64; x64) AppleWebKit/537.36 (KHTML, like Gecko) Chrome/86.0.4240.53 Safari/537.36",53,"[0.9, 0.5, 0.1]","[0.8, 0.4, 0.2]","[u'blue', u'black', u'red']","[u'left', u'middle', u'right']","[0.9, 0.5, 0.1]","[u'medium', u'low', u'high']","black",50,"middle","low","False","False",178,2450,NA
"A2NHFSO7GMM8QR","Wed Sep 30 2020 11:56:50 GMT-0700 (Pacific Daylight Time)","Wed Sep 30 2020 12:09:06 GMT-0700 (Pacific Daylight Time)","Mozilla/5.0 (Windows NT 6.1; Win64; x64) AppleWebKit/537.36 (KHTML, like Gecko) Chrome/86.0.4240.53 Safari/537.36",54,"[0.9, 0.5, 0.1]","[0.8, 0.4, 0.2]","[u'blue', u'black', u'red']","[u'left', u'middle', u'right']","[0.9, 0.5, 0.1]","[u'medium', u'low', u'high']","red",51,"right","high","True","False",153,2550,NA
"A2NHFSO7GMM8QR","Wed Sep 30 2020 11:56:50 GMT-0700 (Pacific Daylight Time)","Wed Sep 30 2020 12:09:06 GMT-0700 (Pacific Daylight Time)","Mozilla/5.0 (Windows NT 6.1; Win64; x64) AppleWebKit/537.36 (KHTML, like Gecko) Chrome/86.0.4240.53 Safari/537.36",55,"[0.9, 0.5, 0.1]","[0.8, 0.4, 0.2]","[u'blue', u'black', u'red']","[u'left', u'middle', u'right']","[0.9, 0.5, 0.1]","[u'medium', u'low', u'high']","red",51,"right","high","True","False",214,2650,NA
"A2NHFSO7GMM8QR","Wed Sep 30 2020 11:56:50 GMT-0700 (Pacific Daylight Time)","Wed Sep 30 2020 12:09:06 GMT-0700 (Pacific Daylight Time)","Mozilla/5.0 (Windows NT 6.1; Win64; x64) AppleWebKit/537.36 (KHTML, like Gecko) Chrome/86.0.4240.53 Safari/537.36",56,"[0.9, 0.5, 0.1]","[0.8, 0.4, 0.2]","[u'blue', u'black', u'red']","[u'left', u'middle', u'right']","[0.9, 0.5, 0.1]","[u'medium', u'low', u'high']","red",51,"right","high","True","False",238,2750,NA
"A2NHFSO7GMM8QR","Wed Sep 30 2020 11:56:50 GMT-0700 (Pacific Daylight Time)","Wed Sep 30 2020 12:09:06 GMT-0700 (Pacific Daylight Time)","Mozilla/5.0 (Windows NT 6.1; Win64; x64) AppleWebKit/537.36 (KHTML, like Gecko) Chrome/86.0.4240.53 Safari/537.36",57,"[0.9, 0.5, 0.1]","[0.8, 0.4, 0.2]","[u'blue', u'black', u'red']","[u'left', u'middle', u'right']","[0.9, 0.5, 0.1]","[u'medium', u'low', u'high']","red",51,"right","high","True","False",324,2850,NA
"A2NHFSO7GMM8QR","Wed Sep 30 2020 11:56:50 GMT-0700 (Pacific Daylight Time)","Wed Sep 30 2020 12:09:06 GMT-0700 (Pacific Daylight Time)","Mozilla/5.0 (Windows NT 6.1; Win64; x64) AppleWebKit/537.36 (KHTML, like Gecko) Chrome/86.0.4240.53 Safari/537.36",58,"[0.9, 0.5, 0.1]","[0.8, 0.4, 0.2]","[u'blue', u'black', u'red']","[u'left', u'middle', u'right']","[0.9, 0.5, 0.1]","[u'medium', u'low', u'high']","black",50,"middle","low","True","False",617,2950,NA
"A2NHFSO7GMM8QR","Wed Sep 30 2020 11:56:50 GMT-0700 (Pacific Daylight Time)","Wed Sep 30 2020 12:09:06 GMT-0700 (Pacific Daylight Time)","Mozilla/5.0 (Windows NT 6.1; Win64; x64) AppleWebKit/537.36 (KHTML, like Gecko) Chrome/86.0.4240.53 Safari/537.36",59,"[0.9, 0.5, 0.1]","[0.8, 0.4, 0.2]","[u'blue', u'black', u'red']","[u'left', u'middle', u'right']","[0.9, 0.5, 0.1]","[u'medium', u'low', u'high']","red",51,"right","high","True","False",306,3050,NA
"A2NHFSO7GMM8QR","Wed Sep 30 2020 11:56:50 GMT-0700 (Pacific Daylight Time)","Wed Sep 30 2020 12:09:06 GMT-0700 (Pacific Daylight Time)","Mozilla/5.0 (Windows NT 6.1; Win64; x64) AppleWebKit/537.36 (KHTML, like Gecko) Chrome/86.0.4240.53 Safari/537.36",60,"[0.9, 0.5, 0.1]","[0.8, 0.4, 0.2]","[u'blue', u'black', u'red']","[u'left', u'middle', u'right']","[0.9, 0.5, 0.1]","[u'medium', u'low', u'high']","red",51,"right","high","True","False",233,3150,NA
"A2NHFSO7GMM8QR","Wed Sep 30 2020 11:56:50 GMT-0700 (Pacific Daylight Time)","Wed Sep 30 2020 12:09:06 GMT-0700 (Pacific Daylight Time)","Mozilla/5.0 (Windows NT 6.1; Win64; x64) AppleWebKit/537.36 (KHTML, like Gecko) Chrome/86.0.4240.53 Safari/537.36",61,"[0.9, 0.5, 0.1]","[0.8, 0.4, 0.2]","[u'blue', u'black', u'red']","[u'left', u'middle', u'right']","[0.9, 0.5, 0.1]","[u'medium', u'low', u'high']","red",51,"right","high","True","False",131,3250,NA
"A2NHFSO7GMM8QR","Wed Sep 30 2020 11:56:50 GMT-0700 (Pacific Daylight Time)","Wed Sep 30 2020 12:09:06 GMT-0700 (Pacific Daylight Time)","Mozilla/5.0 (Windows NT 6.1; Win64; x64) AppleWebKit/537.36 (KHTML, like Gecko) Chrome/86.0.4240.53 Safari/537.36",62,"[0.9, 0.5, 0.1]","[0.8, 0.4, 0.2]","[u'blue', u'black', u'red']","[u'left', u'middle', u'right']","[0.9, 0.5, 0.1]","[u'medium', u'low', u'high']","red",51,"right","high","True","False",75,3350,NA
"A2NHFSO7GMM8QR","Wed Sep 30 2020 11:56:50 GMT-0700 (Pacific Daylight Time)","Wed Sep 30 2020 12:09:06 GMT-0700 (Pacific Daylight Time)","Mozilla/5.0 (Windows NT 6.1; Win64; x64) AppleWebKit/537.36 (KHTML, like Gecko) Chrome/86.0.4240.53 Safari/537.36",63,"[0.9, 0.5, 0.1]","[0.8, 0.4, 0.2]","[u'blue', u'black', u'red']","[u'left', u'middle', u'right']","[0.9, 0.5, 0.1]","[u'medium', u'low', u'high']","red",51,"right","high","False","False",559,3300,NA
"A2NHFSO7GMM8QR","Wed Sep 30 2020 11:56:50 GMT-0700 (Pacific Daylight Time)","Wed Sep 30 2020 12:09:06 GMT-0700 (Pacific Daylight Time)","Mozilla/5.0 (Windows NT 6.1; Win64; x64) AppleWebKit/537.36 (KHTML, like Gecko) Chrome/86.0.4240.53 Safari/537.36",64,"[0.9, 0.5, 0.1]","[0.8, 0.4, 0.2]","[u'blue', u'black', u'red']","[u'left', u'middle', u'right']","[0.9, 0.5, 0.1]","[u'medium', u'low', u'high']","red",51,"right","high","True","False",272,3400,NA
"A2NHFSO7GMM8QR","Wed Sep 30 2020 11:56:50 GMT-0700 (Pacific Daylight Time)","Wed Sep 30 2020 12:09:06 GMT-0700 (Pacific Daylight Time)","Mozilla/5.0 (Windows NT 6.1; Win64; x64) AppleWebKit/537.36 (KHTML, like Gecko) Chrome/86.0.4240.53 Safari/537.36",65,"[0.9, 0.5, 0.1]","[0.8, 0.4, 0.2]","[u'blue', u'black', u'red']","[u'left', u'middle', u'right']","[0.9, 0.5, 0.1]","[u'medium', u'low', u'high']","red",51,"right","high","False","False",325,3350,NA
"A2NHFSO7GMM8QR","Wed Sep 30 2020 11:56:50 GMT-0700 (Pacific Daylight Time)","Wed Sep 30 2020 12:09:06 GMT-0700 (Pacific Daylight Time)","Mozilla/5.0 (Windows NT 6.1; Win64; x64) AppleWebKit/537.36 (KHTML, like Gecko) Chrome/86.0.4240.53 Safari/537.36",66,"[0.9, 0.5, 0.1]","[0.8, 0.4, 0.2]","[u'blue', u'black', u'red']","[u'left', u'middle', u'right']","[0.9, 0.5, 0.1]","[u'medium', u'low', u'high']","black",50,"middle","low","False","False",427,3300,NA
"A2NHFSO7GMM8QR","Wed Sep 30 2020 11:56:50 GMT-0700 (Pacific Daylight Time)","Wed Sep 30 2020 12:09:06 GMT-0700 (Pacific Daylight Time)","Mozilla/5.0 (Windows NT 6.1; Win64; x64) AppleWebKit/537.36 (KHTML, like Gecko) Chrome/86.0.4240.53 Safari/537.36",67,"[0.9, 0.5, 0.1]","[0.8, 0.4, 0.2]","[u'blue', u'black', u'red']","[u'left', u'middle', u'right']","[0.9, 0.5, 0.1]","[u'medium', u'low', u'high']","blue",49,"left","medium","False","False",5,3250,NA
"A2NHFSO7GMM8QR","Wed Sep 30 2020 11:56:50 GMT-0700 (Pacific Daylight Time)","Wed Sep 30 2020 12:09:06 GMT-0700 (Pacific Daylight Time)","Mozilla/5.0 (Windows NT 6.1; Win64; x64) AppleWebKit/537.36 (KHTML, like Gecko) Chrome/86.0.4240.53 Safari/537.36",68,"[0.9, 0.5, 0.1]","[0.8, 0.4, 0.2]","[u'blue', u'black', u'red']","[u'left', u'middle', u'right']","[0.9, 0.5, 0.1]","[u'medium', u'low', u'high']","red",51,"right","high","True","False",383,3350,NA
"A2NHFSO7GMM8QR","Wed Sep 30 2020 11:56:50 GMT-0700 (Pacific Daylight Time)","Wed Sep 30 2020 12:09:06 GMT-0700 (Pacific Daylight Time)","Mozilla/5.0 (Windows NT 6.1; Win64; x64) AppleWebKit/537.36 (KHTML, like Gecko) Chrome/86.0.4240.53 Safari/537.36",69,"[0.9, 0.5, 0.1]","[0.8, 0.4, 0.2]","[u'blue', u'black', u'red']","[u'left', u'middle', u'right']","[0.9, 0.5, 0.1]","[u'medium', u'low', u'high']","red",51,"right","high","True","False",339,3450,NA
"A2NHFSO7GMM8QR","Wed Sep 30 2020 11:56:50 GMT-0700 (Pacific Daylight Time)","Wed Sep 30 2020 12:09:06 GMT-0700 (Pacific Daylight Time)","Mozilla/5.0 (Windows NT 6.1; Win64; x64) AppleWebKit/537.36 (KHTML, like Gecko) Chrome/86.0.4240.53 Safari/537.36",70,"[0.9, 0.5, 0.1]","[0.8, 0.4, 0.2]","[u'blue', u'black', u'red']","[u'left', u'middle', u'right']","[0.9, 0.5, 0.1]","[u'medium', u'low', u'high']","red",51,"right","high","True","False",207,3550,NA
"A2NHFSO7GMM8QR","Wed Sep 30 2020 11:56:50 GMT-0700 (Pacific Daylight Time)","Wed Sep 30 2020 12:09:06 GMT-0700 (Pacific Daylight Time)","Mozilla/5.0 (Windows NT 6.1; Win64; x64) AppleWebKit/537.36 (KHTML, like Gecko) Chrome/86.0.4240.53 Safari/537.36",71,"[0.9, 0.5, 0.1]","[0.8, 0.4, 0.2]","[u'blue', u'black', u'red']","[u'left', u'middle', u'right']","[0.9, 0.5, 0.1]","[u'medium', u'low', u'high']","red",51,"right","high","True","False",138,3650,NA
"A2NHFSO7GMM8QR","Wed Sep 30 2020 11:56:50 GMT-0700 (Pacific Daylight Time)","Wed Sep 30 2020 12:09:06 GMT-0700 (Pacific Daylight Time)","Mozilla/5.0 (Windows NT 6.1; Win64; x64) AppleWebKit/537.36 (KHTML, like Gecko) Chrome/86.0.4240.53 Safari/537.36",72,"[0.9, 0.5, 0.1]","[0.8, 0.4, 0.2]","[u'blue', u'black', u'red']","[u'left', u'middle', u'right']","[0.9, 0.5, 0.1]","[u'medium', u'low', u'high']","red",51,"right","high","True","False",103,3750,NA
"A2NHFSO7GMM8QR","Wed Sep 30 2020 11:56:50 GMT-0700 (Pacific Daylight Time)","Wed Sep 30 2020 12:09:06 GMT-0700 (Pacific Daylight Time)","Mozilla/5.0 (Windows NT 6.1; Win64; x64) AppleWebKit/537.36 (KHTML, like Gecko) Chrome/86.0.4240.53 Safari/537.36",73,"[0.9, 0.5, 0.1]","[0.8, 0.4, 0.2]","[u'blue', u'black', u'red']","[u'left', u'middle', u'right']","[0.9, 0.5, 0.1]","[u'medium', u'low', u'high']","red",51,"right","high","True","False",307,3850,NA
"A2NHFSO7GMM8QR","Wed Sep 30 2020 11:56:50 GMT-0700 (Pacific Daylight Time)","Wed Sep 30 2020 12:09:06 GMT-0700 (Pacific Daylight Time)","Mozilla/5.0 (Windows NT 6.1; Win64; x64) AppleWebKit/537.36 (KHTML, like Gecko) Chrome/86.0.4240.53 Safari/537.36",74,"[0.9, 0.5, 0.1]","[0.8, 0.4, 0.2]","[u'blue', u'black', u'red']","[u'left', u'middle', u'right']","[0.9, 0.5, 0.1]","[u'medium', u'low', u'high']","red",51,"right","high","True","False",262,3950,NA
"A2NHFSO7GMM8QR","Wed Sep 30 2020 11:56:50 GMT-0700 (Pacific Daylight Time)","Wed Sep 30 2020 12:09:06 GMT-0700 (Pacific Daylight Time)","Mozilla/5.0 (Windows NT 6.1; Win64; x64) AppleWebKit/537.36 (KHTML, like Gecko) Chrome/86.0.4240.53 Safari/537.36",75,"[0.9, 0.5, 0.1]","[0.8, 0.4, 0.2]","[u'blue', u'black', u'red']","[u'left', u'middle', u'right']","[0.9, 0.5, 0.1]","[u'medium', u'low', u'high']","red",51,"right","high","True","False",579,4050,NA
"A2NHFSO7GMM8QR","Wed Sep 30 2020 11:56:50 GMT-0700 (Pacific Daylight Time)","Wed Sep 30 2020 12:09:06 GMT-0700 (Pacific Daylight Time)","Mozilla/5.0 (Windows NT 6.1; Win64; x64) AppleWebKit/537.36 (KHTML, like Gecko) Chrome/86.0.4240.53 Safari/537.36",76,"[0.9, 0.5, 0.1]","[0.8, 0.4, 0.2]","[u'blue', u'black', u'red']","[u'left', u'middle', u'right']","[0.9, 0.5, 0.1]","[u'medium', u'low', u'high']","red",51,"right","high","True","True",251,4150,NA
"A2NHFSO7GMM8QR","Wed Sep 30 2020 11:56:50 GMT-0700 (Pacific Daylight Time)","Wed Sep 30 2020 12:09:06 GMT-0700 (Pacific Daylight Time)","Mozilla/5.0 (Windows NT 6.1; Win64; x64) AppleWebKit/537.36 (KHTML, like Gecko) Chrome/86.0.4240.53 Safari/537.36",77,"[0.9, 0.5, 0.1]","[0.8, 0.4, 0.2]","[u'blue', u'black', u'red']","[u'left', u'middle', u'right']","[0.9, 0.5, 0.1]","[u'high', u'low', u'medium']","red",51,"right","medium","False","False",322,4100,NA
"A2NHFSO7GMM8QR","Wed Sep 30 2020 11:56:50 GMT-0700 (Pacific Daylight Time)","Wed Sep 30 2020 12:09:06 GMT-0700 (Pacific Daylight Time)","Mozilla/5.0 (Windows NT 6.1; Win64; x64) AppleWebKit/537.36 (KHTML, like Gecko) Chrome/86.0.4240.53 Safari/537.36",78,"[0.9, 0.5, 0.1]","[0.8, 0.4, 0.2]","[u'blue', u'black', u'red']","[u'left', u'middle', u'right']","[0.9, 0.5, 0.1]","[u'high', u'low', u'medium']","red",51,"right","medium","False","False",856,4050,NA
"A2NHFSO7GMM8QR","Wed Sep 30 2020 11:56:50 GMT-0700 (Pacific Daylight Time)","Wed Sep 30 2020 12:09:06 GMT-0700 (Pacific Daylight Time)","Mozilla/5.0 (Windows NT 6.1; Win64; x64) AppleWebKit/537.36 (KHTML, like Gecko) Chrome/86.0.4240.53 Safari/537.36",79,"[0.9, 0.5, 0.1]","[0.8, 0.4, 0.2]","[u'blue', u'black', u'red']","[u'left', u'middle', u'right']","[0.9, 0.5, 0.1]","[u'high', u'low', u'medium']","red",51,"right","medium","True","False",493,4150,NA
"A2NHFSO7GMM8QR","Wed Sep 30 2020 11:56:50 GMT-0700 (Pacific Daylight Time)","Wed Sep 30 2020 12:09:06 GMT-0700 (Pacific Daylight Time)","Mozilla/5.0 (Windows NT 6.1; Win64; x64) AppleWebKit/537.36 (KHTML, like Gecko) Chrome/86.0.4240.53 Safari/537.36",80,"[0.9, 0.5, 0.1]","[0.8, 0.4, 0.2]","[u'blue', u'black', u'red']","[u'left', u'middle', u'right']","[0.9, 0.5, 0.1]","[u'high', u'low', u'medium']","black",50,"middle","low","True","False",576,4250,NA
"A2NHFSO7GMM8QR","Wed Sep 30 2020 11:56:50 GMT-0700 (Pacific Daylight Time)","Wed Sep 30 2020 12:09:06 GMT-0700 (Pacific Daylight Time)","Mozilla/5.0 (Windows NT 6.1; Win64; x64) AppleWebKit/537.36 (KHTML, like Gecko) Chrome/86.0.4240.53 Safari/537.36",81,"[0.9, 0.5, 0.1]","[0.8, 0.4, 0.2]","[u'blue', u'black', u'red']","[u'left', u'middle', u'right']","[0.8, 0.4, 0.2]","[u'medium', u'low', u'high']","red",51,"right","high","False","False",6287,4200,NA
"A2NHFSO7GMM8QR","Wed Sep 30 2020 11:56:50 GMT-0700 (Pacific Daylight Time)","Wed Sep 30 2020 12:09:06 GMT-0700 (Pacific Daylight Time)","Mozilla/5.0 (Windows NT 6.1; Win64; x64) AppleWebKit/537.36 (KHTML, like Gecko) Chrome/86.0.4240.53 Safari/537.36",82,"[0.9, 0.5, 0.1]","[0.8, 0.4, 0.2]","[u'blue', u'black', u'red']","[u'left', u'middle', u'right']","[0.8, 0.4, 0.2]","[u'medium', u'low', u'high']","black",50,"middle","low","False","False",124,4150,NA
"A2NHFSO7GMM8QR","Wed Sep 30 2020 11:56:50 GMT-0700 (Pacific Daylight Time)","Wed Sep 30 2020 12:09:06 GMT-0700 (Pacific Daylight Time)","Mozilla/5.0 (Windows NT 6.1; Win64; x64) AppleWebKit/537.36 (KHTML, like Gecko) Chrome/86.0.4240.53 Safari/537.36",83,"[0.9, 0.5, 0.1]","[0.8, 0.4, 0.2]","[u'blue', u'black', u'red']","[u'left', u'middle', u'right']","[0.8, 0.4, 0.2]","[u'medium', u'low', u'high']","red",51,"right","high","True","False",376,4250,NA
"A2NHFSO7GMM8QR","Wed Sep 30 2020 11:56:50 GMT-0700 (Pacific Daylight Time)","Wed Sep 30 2020 12:09:06 GMT-0700 (Pacific Daylight Time)","Mozilla/5.0 (Windows NT 6.1; Win64; x64) AppleWebKit/537.36 (KHTML, like Gecko) Chrome/86.0.4240.53 Safari/537.36",84,"[0.9, 0.5, 0.1]","[0.8, 0.4, 0.2]","[u'blue', u'black', u'red']","[u'left', u'middle', u'right']","[0.8, 0.4, 0.2]","[u'medium', u'low', u'high']","red",51,"right","high","True","False",268,4350,NA
"A2NHFSO7GMM8QR","Wed Sep 30 2020 11:56:50 GMT-0700 (Pacific Daylight Time)","Wed Sep 30 2020 12:09:06 GMT-0700 (Pacific Daylight Time)","Mozilla/5.0 (Windows NT 6.1; Win64; x64) AppleWebKit/537.36 (KHTML, like Gecko) Chrome/86.0.4240.53 Safari/537.36",85,"[0.9, 0.5, 0.1]","[0.8, 0.4, 0.2]","[u'blue', u'black', u'red']","[u'left', u'middle', u'right']","[0.8, 0.4, 0.2]","[u'medium', u'low', u'high']","red",51,"right","high","False","False",334,4300,NA
"A2NHFSO7GMM8QR","Wed Sep 30 2020 11:56:50 GMT-0700 (Pacific Daylight Time)","Wed Sep 30 2020 12:09:06 GMT-0700 (Pacific Daylight Time)","Mozilla/5.0 (Windows NT 6.1; Win64; x64) AppleWebKit/537.36 (KHTML, like Gecko) Chrome/86.0.4240.53 Safari/537.36",86,"[0.9, 0.5, 0.1]","[0.8, 0.4, 0.2]","[u'blue', u'black', u'red']","[u'left', u'middle', u'right']","[0.8, 0.4, 0.2]","[u'medium', u'low', u'high']","black",50,"middle","low","False","False",241,4250,NA
"A2NHFSO7GMM8QR","Wed Sep 30 2020 11:56:50 GMT-0700 (Pacific Daylight Time)","Wed Sep 30 2020 12:09:06 GMT-0700 (Pacific Daylight Time)","Mozilla/5.0 (Windows NT 6.1; Win64; x64) AppleWebKit/537.36 (KHTML, like Gecko) Chrome/86.0.4240.53 Safari/537.36",87,"[0.9, 0.5, 0.1]","[0.8, 0.4, 0.2]","[u'blue', u'black', u'red']","[u'left', u'middle', u'right']","[0.8, 0.4, 0.2]","[u'medium', u'low', u'high']","black",50,"middle","low","False","False",815,4200,NA
"A2NHFSO7GMM8QR","Wed Sep 30 2020 11:56:50 GMT-0700 (Pacific Daylight Time)","Wed Sep 30 2020 12:09:06 GMT-0700 (Pacific Daylight Time)","Mozilla/5.0 (Windows NT 6.1; Win64; x64) AppleWebKit/537.36 (KHTML, like Gecko) Chrome/86.0.4240.53 Safari/537.36",88,"[0.9, 0.5, 0.1]","[0.8, 0.4, 0.2]","[u'blue', u'black', u'red']","[u'left', u'middle', u'right']","[0.8, 0.4, 0.2]","[u'medium', u'low', u'high']","blue",49,"left","medium","True","False",246,4300,NA
"A2NHFSO7GMM8QR","Wed Sep 30 2020 11:56:50 GMT-0700 (Pacific Daylight Time)","Wed Sep 30 2020 12:09:06 GMT-0700 (Pacific Daylight Time)","Mozilla/5.0 (Windows NT 6.1; Win64; x64) AppleWebKit/537.36 (KHTML, like Gecko) Chrome/86.0.4240.53 Safari/537.36",89,"[0.9, 0.5, 0.1]","[0.8, 0.4, 0.2]","[u'blue', u'black', u'red']","[u'left', u'middle', u'right']","[0.8, 0.4, 0.2]","[u'medium', u'low', u'high']","blue",49,"left","medium","False","False",340,4250,NA
"A2NHFSO7GMM8QR","Wed Sep 30 2020 11:56:50 GMT-0700 (Pacific Daylight Time)","Wed Sep 30 2020 12:09:06 GMT-0700 (Pacific Daylight Time)","Mozilla/5.0 (Windows NT 6.1; Win64; x64) AppleWebKit/537.36 (KHTML, like Gecko) Chrome/86.0.4240.53 Safari/537.36",90,"[0.9, 0.5, 0.1]","[0.8, 0.4, 0.2]","[u'blue', u'black', u'red']","[u'left', u'middle', u'right']","[0.8, 0.4, 0.2]","[u'medium', u'low', u'high']","red",51,"right","high","True","False",266,4350,NA
"A2NHFSO7GMM8QR","Wed Sep 30 2020 11:56:50 GMT-0700 (Pacific Daylight Time)","Wed Sep 30 2020 12:09:06 GMT-0700 (Pacific Daylight Time)","Mozilla/5.0 (Windows NT 6.1; Win64; x64) AppleWebKit/537.36 (KHTML, like Gecko) Chrome/86.0.4240.53 Safari/537.36",91,"[0.9, 0.5, 0.1]","[0.8, 0.4, 0.2]","[u'blue', u'black', u'red']","[u'left', u'middle', u'right']","[0.8, 0.4, 0.2]","[u'medium', u'low', u'high']","red",51,"right","high","True","False",239,4450,NA
"A2NHFSO7GMM8QR","Wed Sep 30 2020 11:56:50 GMT-0700 (Pacific Daylight Time)","Wed Sep 30 2020 12:09:06 GMT-0700 (Pacific Daylight Time)","Mozilla/5.0 (Windows NT 6.1; Win64; x64) AppleWebKit/537.36 (KHTML, like Gecko) Chrome/86.0.4240.53 Safari/537.36",92,"[0.9, 0.5, 0.1]","[0.8, 0.4, 0.2]","[u'blue', u'black', u'red']","[u'left', u'middle', u'right']","[0.8, 0.4, 0.2]","[u'medium', u'low', u'high']","red",51,"right","high","True","False",251,4550,NA
"A2NHFSO7GMM8QR","Wed Sep 30 2020 11:56:50 GMT-0700 (Pacific Daylight Time)","Wed Sep 30 2020 12:09:06 GMT-0700 (Pacific Daylight Time)","Mozilla/5.0 (Windows NT 6.1; Win64; x64) AppleWebKit/537.36 (KHTML, like Gecko) Chrome/86.0.4240.53 Safari/537.36",93,"[0.9, 0.5, 0.1]","[0.8, 0.4, 0.2]","[u'blue', u'black', u'red']","[u'left', u'middle', u'right']","[0.8, 0.4, 0.2]","[u'medium', u'low', u'high']","red",51,"right","high","False","False",226,4500,NA
"A2NHFSO7GMM8QR","Wed Sep 30 2020 11:56:50 GMT-0700 (Pacific Daylight Time)","Wed Sep 30 2020 12:09:06 GMT-0700 (Pacific Daylight Time)","Mozilla/5.0 (Windows NT 6.1; Win64; x64) AppleWebKit/537.36 (KHTML, like Gecko) Chrome/86.0.4240.53 Safari/537.36",94,"[0.9, 0.5, 0.1]","[0.8, 0.4, 0.2]","[u'blue', u'black', u'red']","[u'left', u'middle', u'right']","[0.8, 0.4, 0.2]","[u'medium', u'low', u'high']","red",51,"right","high","True","False",239,4600,NA
"A2NHFSO7GMM8QR","Wed Sep 30 2020 11:56:50 GMT-0700 (Pacific Daylight Time)","Wed Sep 30 2020 12:09:06 GMT-0700 (Pacific Daylight Time)","Mozilla/5.0 (Windows NT 6.1; Win64; x64) AppleWebKit/537.36 (KHTML, like Gecko) Chrome/86.0.4240.53 Safari/537.36",95,"[0.9, 0.5, 0.1]","[0.8, 0.4, 0.2]","[u'blue', u'black', u'red']","[u'left', u'middle', u'right']","[0.8, 0.4, 0.2]","[u'medium', u'low', u'high']","red",51,"right","high","True","False",131,4700,NA
"A2NHFSO7GMM8QR","Wed Sep 30 2020 11:56:50 GMT-0700 (Pacific Daylight Time)","Wed Sep 30 2020 12:09:06 GMT-0700 (Pacific Daylight Time)","Mozilla/5.0 (Windows NT 6.1; Win64; x64) AppleWebKit/537.36 (KHTML, like Gecko) Chrome/86.0.4240.53 Safari/537.36",96,"[0.9, 0.5, 0.1]","[0.8, 0.4, 0.2]","[u'blue', u'black', u'red']","[u'left', u'middle', u'right']","[0.8, 0.4, 0.2]","[u'medium', u'low', u'high']","red",51,"right","high","True","False",172,4800,NA
"A2NHFSO7GMM8QR","Wed Sep 30 2020 11:56:50 GMT-0700 (Pacific Daylight Time)","Wed Sep 30 2020 12:09:06 GMT-0700 (Pacific Daylight Time)","Mozilla/5.0 (Windows NT 6.1; Win64; x64) AppleWebKit/537.36 (KHTML, like Gecko) Chrome/86.0.4240.53 Safari/537.36",97,"[0.9, 0.5, 0.1]","[0.8, 0.4, 0.2]","[u'blue', u'black', u'red']","[u'left', u'middle', u'right']","[0.8, 0.4, 0.2]","[u'medium', u'low', u'high']","red",51,"right","high","True","False",354,4900,NA
"A2NHFSO7GMM8QR","Wed Sep 30 2020 11:56:50 GMT-0700 (Pacific Daylight Time)","Wed Sep 30 2020 12:09:06 GMT-0700 (Pacific Daylight Time)","Mozilla/5.0 (Windows NT 6.1; Win64; x64) AppleWebKit/537.36 (KHTML, like Gecko) Chrome/86.0.4240.53 Safari/537.36",98,"[0.9, 0.5, 0.1]","[0.8, 0.4, 0.2]","[u'blue', u'black', u'red']","[u'left', u'middle', u'right']","[0.8, 0.4, 0.2]","[u'medium', u'low', u'high']","red",51,"right","high","True","True",432,5000,NA
"A2NHFSO7GMM8QR","Wed Sep 30 2020 11:56:50 GMT-0700 (Pacific Daylight Time)","Wed Sep 30 2020 12:09:06 GMT-0700 (Pacific Daylight Time)","Mozilla/5.0 (Windows NT 6.1; Win64; x64) AppleWebKit/537.36 (KHTML, like Gecko) Chrome/86.0.4240.53 Safari/537.36",99,"[0.9, 0.5, 0.1]","[0.8, 0.4, 0.2]","[u'blue', u'black', u'red']","[u'left', u'middle', u'right']","[0.8, 0.4, 0.2]","[u'low', u'high', u'medium']","red",51,"right","medium","False","False",235,4950,NA
"A2NHFSO7GMM8QR","Wed Sep 30 2020 11:56:50 GMT-0700 (Pacific Daylight Time)","Wed Sep 30 2020 12:09:06 GMT-0700 (Pacific Daylight Time)","Mozilla/5.0 (Windows NT 6.1; Win64; x64) AppleWebKit/537.36 (KHTML, like Gecko) Chrome/86.0.4240.53 Safari/537.36",100,"[0.9, 0.5, 0.1]","[0.8, 0.4, 0.2]","[u'blue', u'black', u'red']","[u'left', u'middle', u'right']","[0.8, 0.4, 0.2]","[u'low', u'high', u'medium']","red",51,"right","medium","False","False",241,4900,NA
"A2NHFSO7GMM8QR","Wed Sep 30 2020 11:56:50 GMT-0700 (Pacific Daylight Time)","Wed Sep 30 2020 12:09:06 GMT-0700 (Pacific Daylight Time)","Mozilla/5.0 (Windows NT 6.1; Win64; x64) AppleWebKit/537.36 (KHTML, like Gecko) Chrome/86.0.4240.53 Safari/537.36",101,"[0.9, 0.5, 0.1]","[0.8, 0.4, 0.2]","[u'blue', u'black', u'red']","[u'left', u'middle', u'right']","[0.8, 0.4, 0.2]","[u'low', u'high', u'medium']","red",51,"right","medium","True","False",150,5000,NA
"A2NHFSO7GMM8QR","Wed Sep 30 2020 11:56:50 GMT-0700 (Pacific Daylight Time)","Wed Sep 30 2020 12:09:06 GMT-0700 (Pacific Daylight Time)","Mozilla/5.0 (Windows NT 6.1; Win64; x64) AppleWebKit/537.36 (KHTML, like Gecko) Chrome/86.0.4240.53 Safari/537.36",102,"[0.9, 0.5, 0.1]","[0.8, 0.4, 0.2]","[u'blue', u'black', u'red']","[u'left', u'middle', u'right']","[0.8, 0.4, 0.2]","[u'low', u'high', u'medium']","red",51,"right","medium","False","False",263,4950,NA
"A2NHFSO7GMM8QR","Wed Sep 30 2020 11:56:50 GMT-0700 (Pacific Daylight Time)","Wed Sep 30 2020 12:09:06 GMT-0700 (Pacific Daylight Time)","Mozilla/5.0 (Windows NT 6.1; Win64; x64) AppleWebKit/537.36 (KHTML, like Gecko) Chrome/86.0.4240.53 Safari/537.36",103,"[0.9, 0.5, 0.1]","[0.8, 0.4, 0.2]","[u'blue', u'black', u'red']","[u'left', u'middle', u'right']","[0.8, 0.4, 0.2]","[u'low', u'high', u'medium']","black",50,"middle","high","True","False",319,5050,NA
"A2NHFSO7GMM8QR","Wed Sep 30 2020 11:56:50 GMT-0700 (Pacific Daylight Time)","Wed Sep 30 2020 12:09:06 GMT-0700 (Pacific Daylight Time)","Mozilla/5.0 (Windows NT 6.1; Win64; x64) AppleWebKit/537.36 (KHTML, like Gecko) Chrome/86.0.4240.53 Safari/537.36",104,"[0.9, 0.5, 0.1]","[0.8, 0.4, 0.2]","[u'blue', u'black', u'red']","[u'left', u'middle', u'right']","[0.8, 0.4, 0.2]","[u'low', u'high', u'medium']","black",50,"middle","high","True","False",283,5150,NA
"A2NHFSO7GMM8QR","Wed Sep 30 2020 11:56:50 GMT-0700 (Pacific Daylight Time)","Wed Sep 30 2020 12:09:06 GMT-0700 (Pacific Daylight Time)","Mozilla/5.0 (Windows NT 6.1; Win64; x64) AppleWebKit/537.36 (KHTML, like Gecko) Chrome/86.0.4240.53 Safari/537.36",105,"[0.9, 0.5, 0.1]","[0.8, 0.4, 0.2]","[u'blue', u'black', u'red']","[u'left', u'middle', u'right']","[0.8, 0.4, 0.2]","[u'low', u'high', u'medium']","black",50,"middle","high","True","False",353,5250,NA
"A2NHFSO7GMM8QR","Wed Sep 30 2020 11:56:50 GMT-0700 (Pacific Daylight Time)","Wed Sep 30 2020 12:09:06 GMT-0700 (Pacific Daylight Time)","Mozilla/5.0 (Windows NT 6.1; Win64; x64) AppleWebKit/537.36 (KHTML, like Gecko) Chrome/86.0.4240.53 Safari/537.36",106,"[0.9, 0.5, 0.1]","[0.8, 0.4, 0.2]","[u'blue', u'black', u'red']","[u'left', u'middle', u'right']","[0.8, 0.4, 0.2]","[u'low', u'high', u'medium']","black",50,"middle","high","True","False",867,5350,NA
"A2NHFSO7GMM8QR","Wed Sep 30 2020 11:56:50 GMT-0700 (Pacific Daylight Time)","Wed Sep 30 2020 12:09:06 GMT-0700 (Pacific Daylight Time)","Mozilla/5.0 (Windows NT 6.1; Win64; x64) AppleWebKit/537.36 (KHTML, like Gecko) Chrome/86.0.4240.53 Safari/537.36",107,"[0.9, 0.5, 0.1]","[0.8, 0.4, 0.2]","[u'blue', u'black', u'red']","[u'left', u'middle', u'right']","[0.8, 0.4, 0.2]","[u'low', u'high', u'medium']","black",50,"middle","high","False","False",273,5300,NA
"A2NHFSO7GMM8QR","Wed Sep 30 2020 11:56:50 GMT-0700 (Pacific Daylight Time)","Wed Sep 30 2020 12:09:06 GMT-0700 (Pacific Daylight Time)","Mozilla/5.0 (Windows NT 6.1; Win64; x64) AppleWebKit/537.36 (KHTML, like Gecko) Chrome/86.0.4240.53 Safari/537.36",108,"[0.9, 0.5, 0.1]","[0.8, 0.4, 0.2]","[u'blue', u'black', u'red']","[u'left', u'middle', u'right']","[0.8, 0.4, 0.2]","[u'low', u'high', u'medium']","red",51,"right","medium","False","False",177,5250,NA
"A2NHFSO7GMM8QR","Wed Sep 30 2020 11:56:50 GMT-0700 (Pacific Daylight Time)","Wed Sep 30 2020 12:09:06 GMT-0700 (Pacific Daylight Time)","Mozilla/5.0 (Windows NT 6.1; Win64; x64) AppleWebKit/537.36 (KHTML, like Gecko) Chrome/86.0.4240.53 Safari/537.36",109,"[0.9, 0.5, 0.1]","[0.8, 0.4, 0.2]","[u'blue', u'black', u'red']","[u'left', u'middle', u'right']","[0.8, 0.4, 0.2]","[u'low', u'high', u'medium']","red",51,"right","medium","False","False",323,5200,NA
"A2NHFSO7GMM8QR","Wed Sep 30 2020 11:56:50 GMT-0700 (Pacific Daylight Time)","Wed Sep 30 2020 12:09:06 GMT-0700 (Pacific Daylight Time)","Mozilla/5.0 (Windows NT 6.1; Win64; x64) AppleWebKit/537.36 (KHTML, like Gecko) Chrome/86.0.4240.53 Safari/537.36",110,"[0.9, 0.5, 0.1]","[0.8, 0.4, 0.2]","[u'blue', u'black', u'red']","[u'left', u'middle', u'right']","[0.8, 0.4, 0.2]","[u'low', u'high', u'medium']","black",50,"middle","high","True","False",269,5300,NA
"A2NHFSO7GMM8QR","Wed Sep 30 2020 11:56:50 GMT-0700 (Pacific Daylight Time)","Wed Sep 30 2020 12:09:06 GMT-0700 (Pacific Daylight Time)","Mozilla/5.0 (Windows NT 6.1; Win64; x64) AppleWebKit/537.36 (KHTML, like Gecko) Chrome/86.0.4240.53 Safari/537.36",111,"[0.9, 0.5, 0.1]","[0.8, 0.4, 0.2]","[u'blue', u'black', u'red']","[u'left', u'middle', u'right']","[0.8, 0.4, 0.2]","[u'low', u'high', u'medium']","black",50,"middle","high","True","False",751,5400,NA
"A2NHFSO7GMM8QR","Wed Sep 30 2020 11:56:50 GMT-0700 (Pacific Daylight Time)","Wed Sep 30 2020 12:09:06 GMT-0700 (Pacific Daylight Time)","Mozilla/5.0 (Windows NT 6.1; Win64; x64) AppleWebKit/537.36 (KHTML, like Gecko) Chrome/86.0.4240.53 Safari/537.36",112,"[0.9, 0.5, 0.1]","[0.8, 0.4, 0.2]","[u'blue', u'black', u'red']","[u'left', u'middle', u'right']","[0.8, 0.4, 0.2]","[u'low', u'high', u'medium']","black",50,"middle","high","True","False",289,5500,NA
"A2NHFSO7GMM8QR","Wed Sep 30 2020 11:56:50 GMT-0700 (Pacific Daylight Time)","Wed Sep 30 2020 12:09:06 GMT-0700 (Pacific Daylight Time)","Mozilla/5.0 (Windows NT 6.1; Win64; x64) AppleWebKit/537.36 (KHTML, like Gecko) Chrome/86.0.4240.53 Safari/537.36",113,"[0.9, 0.5, 0.1]","[0.8, 0.4, 0.2]","[u'blue', u'black', u'red']","[u'left', u'middle', u'right']","[0.8, 0.4, 0.2]","[u'low', u'high', u'medium']","black",50,"middle","high","True","False",67,5600,NA
"A2NHFSO7GMM8QR","Wed Sep 30 2020 11:56:50 GMT-0700 (Pacific Daylight Time)","Wed Sep 30 2020 12:09:06 GMT-0700 (Pacific Daylight Time)","Mozilla/5.0 (Windows NT 6.1; Win64; x64) AppleWebKit/537.36 (KHTML, like Gecko) Chrome/86.0.4240.53 Safari/537.36",114,"[0.9, 0.5, 0.1]","[0.8, 0.4, 0.2]","[u'blue', u'black', u'red']","[u'left', u'middle', u'right']","[0.8, 0.4, 0.2]","[u'low', u'high', u'medium']","black",50,"middle","high","True","False",179,5700,NA
"A2NHFSO7GMM8QR","Wed Sep 30 2020 11:56:50 GMT-0700 (Pacific Daylight Time)","Wed Sep 30 2020 12:09:06 GMT-0700 (Pacific Daylight Time)","Mozilla/5.0 (Windows NT 6.1; Win64; x64) AppleWebKit/537.36 (KHTML, like Gecko) Chrome/86.0.4240.53 Safari/537.36",115,"[0.9, 0.5, 0.1]","[0.8, 0.4, 0.2]","[u'blue', u'black', u'red']","[u'left', u'middle', u'right']","[0.8, 0.4, 0.2]","[u'low', u'high', u'medium']","black",50,"middle","high","True","False",285,5800,NA
"A2NHFSO7GMM8QR","Wed Sep 30 2020 11:56:50 GMT-0700 (Pacific Daylight Time)","Wed Sep 30 2020 12:09:06 GMT-0700 (Pacific Daylight Time)","Mozilla/5.0 (Windows NT 6.1; Win64; x64) AppleWebKit/537.36 (KHTML, like Gecko) Chrome/86.0.4240.53 Safari/537.36",116,"[0.9, 0.5, 0.1]","[0.8, 0.4, 0.2]","[u'blue', u'black', u'red']","[u'left', u'middle', u'right']","[0.8, 0.4, 0.2]","[u'low', u'high', u'medium']","black",50,"middle","high","True","False",39,5900,NA
"A2NHFSO7GMM8QR","Wed Sep 30 2020 11:56:50 GMT-0700 (Pacific Daylight Time)","Wed Sep 30 2020 12:09:06 GMT-0700 (Pacific Daylight Time)","Mozilla/5.0 (Windows NT 6.1; Win64; x64) AppleWebKit/537.36 (KHTML, like Gecko) Chrome/86.0.4240.53 Safari/537.36",117,"[0.9, 0.5, 0.1]","[0.8, 0.4, 0.2]","[u'blue', u'black', u'red']","[u'left', u'middle', u'right']","[0.8, 0.4, 0.2]","[u'low', u'high', u'medium']","black",50,"middle","high","True","False",635,6000,NA
"A2NHFSO7GMM8QR","Wed Sep 30 2020 11:56:50 GMT-0700 (Pacific Daylight Time)","Wed Sep 30 2020 12:09:06 GMT-0700 (Pacific Daylight Time)","Mozilla/5.0 (Windows NT 6.1; Win64; x64) AppleWebKit/537.36 (KHTML, like Gecko) Chrome/86.0.4240.53 Safari/537.36",118,"[0.9, 0.5, 0.1]","[0.8, 0.4, 0.2]","[u'blue', u'black', u'red']","[u'left', u'middle', u'right']","[0.8, 0.4, 0.2]","[u'low', u'high', u'medium']","black",50,"middle","high","False","True",283,5950,NA
"A2NHFSO7GMM8QR","Wed Sep 30 2020 11:56:50 GMT-0700 (Pacific Daylight Time)","Wed Sep 30 2020 12:09:06 GMT-0700 (Pacific Daylight Time)","Mozilla/5.0 (Windows NT 6.1; Win64; x64) AppleWebKit/537.36 (KHTML, like Gecko) Chrome/86.0.4240.53 Safari/537.36",119,"[0.9, 0.5, 0.1]","[0.8, 0.4, 0.2]","[u'blue', u'black', u'red']","[u'left', u'middle', u'right']","[0.8, 0.4, 0.2]","[u'high', u'medium', u'low']","blue",49,"left","high","True","False",121,6050,NA
"A2NHFSO7GMM8QR","Wed Sep 30 2020 11:56:50 GMT-0700 (Pacific Daylight Time)","Wed Sep 30 2020 12:09:06 GMT-0700 (Pacific Daylight Time)","Mozilla/5.0 (Windows NT 6.1; Win64; x64) AppleWebKit/537.36 (KHTML, like Gecko) Chrome/86.0.4240.53 Safari/537.36",120,"[0.9, 0.5, 0.1]","[0.8, 0.4, 0.2]","[u'blue', u'black', u'red']","[u'left', u'middle', u'right']","[0.8, 0.4, 0.2]","[u'high', u'medium', u'low']","blue",49,"left","high","True","False",174,6150,NA
"A2NHFSO7GMM8QR","Wed Sep 30 2020 11:56:50 GMT-0700 (Pacific Daylight Time)","Wed Sep 30 2020 12:09:06 GMT-0700 (Pacific Daylight Time)","Mozilla/5.0 (Windows NT 6.1; Win64; x64) AppleWebKit/537.36 (KHTML, like Gecko) Chrome/86.0.4240.53 Safari/537.36",121,"[0.9, 0.5, 0.1]","[0.8, 0.4, 0.2]","[u'blue', u'black', u'red']","[u'left', u'middle', u'right']","[0.8, 0.4, 0.2]","[u'low', u'high', u'medium']","red",51,"right","medium","True","False",1101,6250,NA
"A2NHFSO7GMM8QR","Wed Sep 30 2020 11:56:50 GMT-0700 (Pacific Daylight Time)","Wed Sep 30 2020 12:09:06 GMT-0700 (Pacific Daylight Time)","Mozilla/5.0 (Windows NT 6.1; Win64; x64) AppleWebKit/537.36 (KHTML, like Gecko) Chrome/86.0.4240.53 Safari/537.36",122,"[0.9, 0.5, 0.1]","[0.8, 0.4, 0.2]","[u'blue', u'black', u'red']","[u'left', u'middle', u'right']","[0.8, 0.4, 0.2]","[u'low', u'high', u'medium']","red",51,"right","medium","True","False",153,6350,NA
"A2NHFSO7GMM8QR","Wed Sep 30 2020 11:56:50 GMT-0700 (Pacific Daylight Time)","Wed Sep 30 2020 12:09:06 GMT-0700 (Pacific Daylight Time)","Mozilla/5.0 (Windows NT 6.1; Win64; x64) AppleWebKit/537.36 (KHTML, like Gecko) Chrome/86.0.4240.53 Safari/537.36",123,"[0.9, 0.5, 0.1]","[0.8, 0.4, 0.2]","[u'blue', u'black', u'red']","[u'left', u'middle', u'right']","[0.8, 0.4, 0.2]","[u'low', u'high', u'medium']","red",51,"right","medium","True","False",103,6450,NA
"A2NHFSO7GMM8QR","Wed Sep 30 2020 11:56:50 GMT-0700 (Pacific Daylight Time)","Wed Sep 30 2020 12:09:06 GMT-0700 (Pacific Daylight Time)","Mozilla/5.0 (Windows NT 6.1; Win64; x64) AppleWebKit/537.36 (KHTML, like Gecko) Chrome/86.0.4240.53 Safari/537.36",124,"[0.9, 0.5, 0.1]","[0.8, 0.4, 0.2]","[u'blue', u'black', u'red']","[u'left', u'middle', u'right']","[0.8, 0.4, 0.2]","[u'low', u'high', u'medium']","red",51,"right","medium","True","False",479,6550,NA
"A2NHFSO7GMM8QR","Wed Sep 30 2020 11:56:50 GMT-0700 (Pacific Daylight Time)","Wed Sep 30 2020 12:09:06 GMT-0700 (Pacific Daylight Time)","Mozilla/5.0 (Windows NT 6.1; Win64; x64) AppleWebKit/537.36 (KHTML, like Gecko) Chrome/86.0.4240.53 Safari/537.36",125,"[0.9, 0.5, 0.1]","[0.8, 0.4, 0.2]","[u'blue', u'black', u'red']","[u'left', u'middle', u'right']","[0.8, 0.4, 0.2]","[u'low', u'high', u'medium']","red",51,"right","medium","True","False",92,6650,NA
"A2NHFSO7GMM8QR","Wed Sep 30 2020 11:56:50 GMT-0700 (Pacific Daylight Time)","Wed Sep 30 2020 12:09:06 GMT-0700 (Pacific Daylight Time)","Mozilla/5.0 (Windows NT 6.1; Win64; x64) AppleWebKit/537.36 (KHTML, like Gecko) Chrome/86.0.4240.53 Safari/537.36",126,"[0.9, 0.5, 0.1]","[0.8, 0.4, 0.2]","[u'blue', u'black', u'red']","[u'left', u'middle', u'right']","[0.8, 0.4, 0.2]","[u'low', u'high', u'medium']","red",51,"right","medium","False","False",292,6600,NA
"A2NHFSO7GMM8QR","Wed Sep 30 2020 11:56:50 GMT-0700 (Pacific Daylight Time)","Wed Sep 30 2020 12:09:06 GMT-0700 (Pacific Daylight Time)","Mozilla/5.0 (Windows NT 6.1; Win64; x64) AppleWebKit/537.36 (KHTML, like Gecko) Chrome/86.0.4240.53 Safari/537.36",127,"[0.9, 0.5, 0.1]","[0.8, 0.4, 0.2]","[u'blue', u'black', u'red']","[u'left', u'middle', u'right']","[0.8, 0.4, 0.2]","[u'low', u'high', u'medium']","black",50,"middle","high","True","False",1575,6700,NA
"A2NHFSO7GMM8QR","Wed Sep 30 2020 11:56:50 GMT-0700 (Pacific Daylight Time)","Wed Sep 30 2020 12:09:06 GMT-0700 (Pacific Daylight Time)","Mozilla/5.0 (Windows NT 6.1; Win64; x64) AppleWebKit/537.36 (KHTML, like Gecko) Chrome/86.0.4240.53 Safari/537.36",128,"[0.9, 0.5, 0.1]","[0.8, 0.4, 0.2]","[u'blue', u'black', u'red']","[u'left', u'middle', u'right']","[0.8, 0.4, 0.2]","[u'low', u'high', u'medium']","black",50,"middle","high","True","False",118,6800,NA
"A2NHFSO7GMM8QR","Wed Sep 30 2020 11:56:50 GMT-0700 (Pacific Daylight Time)","Wed Sep 30 2020 12:09:06 GMT-0700 (Pacific Daylight Time)","Mozilla/5.0 (Windows NT 6.1; Win64; x64) AppleWebKit/537.36 (KHTML, like Gecko) Chrome/86.0.4240.53 Safari/537.36",129,"[0.9, 0.5, 0.1]","[0.8, 0.4, 0.2]","[u'blue', u'black', u'red']","[u'left', u'middle', u'right']","[0.8, 0.4, 0.2]","[u'low', u'high', u'medium']","black",50,"middle","high","False","False",1225,6750,NA
"A2NHFSO7GMM8QR","Wed Sep 30 2020 11:56:50 GMT-0700 (Pacific Daylight Time)","Wed Sep 30 2020 12:09:06 GMT-0700 (Pacific Daylight Time)","Mozilla/5.0 (Windows NT 6.1; Win64; x64) AppleWebKit/537.36 (KHTML, like Gecko) Chrome/86.0.4240.53 Safari/537.36",130,"[0.9, 0.5, 0.1]","[0.8, 0.4, 0.2]","[u'blue', u'black', u'red']","[u'left', u'middle', u'right']","[0.8, 0.4, 0.2]","[u'low', u'high', u'medium']","red",51,"right","medium","True","False",201,6850,NA
"A2NHFSO7GMM8QR","Wed Sep 30 2020 11:56:50 GMT-0700 (Pacific Daylight Time)","Wed Sep 30 2020 12:09:06 GMT-0700 (Pacific Daylight Time)","Mozilla/5.0 (Windows NT 6.1; Win64; x64) AppleWebKit/537.36 (KHTML, like Gecko) Chrome/86.0.4240.53 Safari/537.36",131,"[0.9, 0.5, 0.1]","[0.8, 0.4, 0.2]","[u'blue', u'black', u'red']","[u'left', u'middle', u'right']","[0.8, 0.4, 0.2]","[u'low', u'high', u'medium']","red",51,"right","medium","False","False",378,6800,NA
"A2NHFSO7GMM8QR","Wed Sep 30 2020 11:56:50 GMT-0700 (Pacific Daylight Time)","Wed Sep 30 2020 12:09:06 GMT-0700 (Pacific Daylight Time)","Mozilla/5.0 (Windows NT 6.1; Win64; x64) AppleWebKit/537.36 (KHTML, like Gecko) Chrome/86.0.4240.53 Safari/537.36",132,"[0.9, 0.5, 0.1]","[0.8, 0.4, 0.2]","[u'blue', u'black', u'red']","[u'left', u'middle', u'right']","[0.8, 0.4, 0.2]","[u'low', u'high', u'medium']","black",50,"middle","high","True","False",1080,6900,NA
"A2NHFSO7GMM8QR","Wed Sep 30 2020 11:56:50 GMT-0700 (Pacific Daylight Time)","Wed Sep 30 2020 12:09:06 GMT-0700 (Pacific Daylight Time)","Mozilla/5.0 (Windows NT 6.1; Win64; x64) AppleWebKit/537.36 (KHTML, like Gecko) Chrome/86.0.4240.53 Safari/537.36",133,"[0.9, 0.5, 0.1]","[0.8, 0.4, 0.2]","[u'blue', u'black', u'red']","[u'left', u'middle', u'right']","[0.8, 0.4, 0.2]","[u'low', u'high', u'medium']","red",51,"right","medium","False","False",665,6850,NA
"A2NHFSO7GMM8QR","Wed Sep 30 2020 11:56:50 GMT-0700 (Pacific Daylight Time)","Wed Sep 30 2020 12:09:06 GMT-0700 (Pacific Daylight Time)","Mozilla/5.0 (Windows NT 6.1; Win64; x64) AppleWebKit/537.36 (KHTML, like Gecko) Chrome/86.0.4240.53 Safari/537.36",134,"[0.9, 0.5, 0.1]","[0.8, 0.4, 0.2]","[u'blue', u'black', u'red']","[u'left', u'middle', u'right']","[0.8, 0.4, 0.2]","[u'low', u'high', u'medium']","red",51,"right","medium","False","False",3,6800,NA
"A2NHFSO7GMM8QR","Wed Sep 30 2020 11:56:50 GMT-0700 (Pacific Daylight Time)","Wed Sep 30 2020 12:09:06 GMT-0700 (Pacific Daylight Time)","Mozilla/5.0 (Windows NT 6.1; Win64; x64) AppleWebKit/537.36 (KHTML, like Gecko) Chrome/86.0.4240.53 Safari/537.36",135,"[0.9, 0.5, 0.1]","[0.8, 0.4, 0.2]","[u'blue', u'black', u'red']","[u'left', u'middle', u'right']","[0.8, 0.4, 0.2]","[u'low', u'high', u'medium']","black",50,"middle","high","False","False",373,6750,NA
"A2NHFSO7GMM8QR","Wed Sep 30 2020 11:56:50 GMT-0700 (Pacific Daylight Time)","Wed Sep 30 2020 12:09:06 GMT-0700 (Pacific Daylight Time)","Mozilla/5.0 (Windows NT 6.1; Win64; x64) AppleWebKit/537.36 (KHTML, like Gecko) Chrome/86.0.4240.53 Safari/537.36",136,"[0.9, 0.5, 0.1]","[0.8, 0.4, 0.2]","[u'blue', u'black', u'red']","[u'left', u'middle', u'right']","[0.8, 0.4, 0.2]","[u'low', u'high', u'medium']","red",51,"right","medium","False","False",20735,6700,NA
"A2NHFSO7GMM8QR","Wed Sep 30 2020 11:56:50 GMT-0700 (Pacific Daylight Time)","Wed Sep 30 2020 12:09:06 GMT-0700 (Pacific Daylight Time)","Mozilla/5.0 (Windows NT 6.1; Win64; x64) AppleWebKit/537.36 (KHTML, like Gecko) Chrome/86.0.4240.53 Safari/537.36",137,"[0.9, 0.5, 0.1]","[0.8, 0.4, 0.2]","[u'blue', u'black', u'red']","[u'left', u'middle', u'right']","[0.8, 0.4, 0.2]","[u'low', u'high', u'medium']","black",50,"middle","high","True","False",106,6800,NA
"A2NHFSO7GMM8QR","Wed Sep 30 2020 11:56:50 GMT-0700 (Pacific Daylight Time)","Wed Sep 30 2020 12:09:06 GMT-0700 (Pacific Daylight Time)","Mozilla/5.0 (Windows NT 6.1; Win64; x64) AppleWebKit/537.36 (KHTML, like Gecko) Chrome/86.0.4240.53 Safari/537.36",138,"[0.9, 0.5, 0.1]","[0.8, 0.4, 0.2]","[u'blue', u'black', u'red']","[u'left', u'middle', u'right']","[0.8, 0.4, 0.2]","[u'low', u'high', u'medium']","red",51,"right","medium","False","False",318,6750,NA
"A2NHFSO7GMM8QR","Wed Sep 30 2020 11:56:50 GMT-0700 (Pacific Daylight Time)","Wed Sep 30 2020 12:09:06 GMT-0700 (Pacific Daylight Time)","Mozilla/5.0 (Windows NT 6.1; Win64; x64) AppleWebKit/537.36 (KHTML, like Gecko) Chrome/86.0.4240.53 Safari/537.36",139,"[0.9, 0.5, 0.1]","[0.8, 0.4, 0.2]","[u'blue', u'black', u'red']","[u'left', u'middle', u'right']","[0.8, 0.4, 0.2]","[u'low', u'high', u'medium']","red",51,"right","medium","True","False",326,6850,NA
"A2NHFSO7GMM8QR","Wed Sep 30 2020 11:56:50 GMT-0700 (Pacific Daylight Time)","Wed Sep 30 2020 12:09:06 GMT-0700 (Pacific Daylight Time)","Mozilla/5.0 (Windows NT 6.1; Win64; x64) AppleWebKit/537.36 (KHTML, like Gecko) Chrome/86.0.4240.53 Safari/537.36",140,"[0.9, 0.5, 0.1]","[0.8, 0.4, 0.2]","[u'blue', u'black', u'red']","[u'left', u'middle', u'right']","[0.8, 0.4, 0.2]","[u'low', u'high', u'medium']","red",51,"right","medium","True","False",259,6950,NA
"A2NHFSO7GMM8QR","Wed Sep 30 2020 11:56:50 GMT-0700 (Pacific Daylight Time)","Wed Sep 30 2020 12:09:06 GMT-0700 (Pacific Daylight Time)","Mozilla/5.0 (Windows NT 6.1; Win64; x64) AppleWebKit/537.36 (KHTML, like Gecko) Chrome/86.0.4240.53 Safari/537.36",141,"[0.9, 0.5, 0.1]","[0.8, 0.4, 0.2]","[u'blue', u'black', u'red']","[u'left', u'middle', u'right']","[0.8, 0.4, 0.2]","[u'low', u'high', u'medium']","red",51,"right","medium","True","False",251,7050,NA
"A2NHFSO7GMM8QR","Wed Sep 30 2020 11:56:50 GMT-0700 (Pacific Daylight Time)","Wed Sep 30 2020 12:09:06 GMT-0700 (Pacific Daylight Time)","Mozilla/5.0 (Windows NT 6.1; Win64; x64) AppleWebKit/537.36 (KHTML, like Gecko) Chrome/86.0.4240.53 Safari/537.36",142,"[0.9, 0.5, 0.1]","[0.8, 0.4, 0.2]","[u'blue', u'black', u'red']","[u'left', u'middle', u'right']","[0.8, 0.4, 0.2]","[u'low', u'high', u'medium']","red",51,"right","medium","False","False",220,7000,NA
"A2NHFSO7GMM8QR","Wed Sep 30 2020 11:56:50 GMT-0700 (Pacific Daylight Time)","Wed Sep 30 2020 12:09:06 GMT-0700 (Pacific Daylight Time)","Mozilla/5.0 (Windows NT 6.1; Win64; x64) AppleWebKit/537.36 (KHTML, like Gecko) Chrome/86.0.4240.53 Safari/537.36",143,"[0.9, 0.5, 0.1]","[0.8, 0.4, 0.2]","[u'blue', u'black', u'red']","[u'left', u'middle', u'right']","[0.8, 0.4, 0.2]","[u'low', u'high', u'medium']","black",50,"middle","high","False","False",759,6950,NA
"A2NHFSO7GMM8QR","Wed Sep 30 2020 11:56:50 GMT-0700 (Pacific Daylight Time)","Wed Sep 30 2020 12:09:06 GMT-0700 (Pacific Daylight Time)","Mozilla/5.0 (Windows NT 6.1; Win64; x64) AppleWebKit/537.36 (KHTML, like Gecko) Chrome/86.0.4240.53 Safari/537.36",144,"[0.9, 0.5, 0.1]","[0.8, 0.4, 0.2]","[u'blue', u'black', u'red']","[u'left', u'middle', u'right']","[0.8, 0.4, 0.2]","[u'low', u'high', u'medium']","red",51,"right","medium","True","False",77,7050,NA
"A2NHFSO7GMM8QR","Wed Sep 30 2020 11:56:50 GMT-0700 (Pacific Daylight Time)","Wed Sep 30 2020 12:09:06 GMT-0700 (Pacific Daylight Time)","Mozilla/5.0 (Windows NT 6.1; Win64; x64) AppleWebKit/537.36 (KHTML, like Gecko) Chrome/86.0.4240.53 Safari/537.36",145,"[0.9, 0.5, 0.1]","[0.8, 0.4, 0.2]","[u'blue', u'black', u'red']","[u'left', u'middle', u'right']","[0.8, 0.4, 0.2]","[u'low', u'high', u'medium']","red",51,"right","medium","False","False",56,7000,NA
"A2NHFSO7GMM8QR","Wed Sep 30 2020 11:56:50 GMT-0700 (Pacific Daylight Time)","Wed Sep 30 2020 12:09:06 GMT-0700 (Pacific Daylight Time)","Mozilla/5.0 (Windows NT 6.1; Win64; x64) AppleWebKit/537.36 (KHTML, like Gecko) Chrome/86.0.4240.53 Safari/537.36",146,"[0.9, 0.5, 0.1]","[0.8, 0.4, 0.2]","[u'blue', u'black', u'red']","[u'left', u'middle', u'right']","[0.8, 0.4, 0.2]","[u'low', u'high', u'medium']","blue",49,"left","low","False","False",253,6950,NA
"A2NHFSO7GMM8QR","Wed Sep 30 2020 11:56:50 GMT-0700 (Pacific Daylight Time)","Wed Sep 30 2020 12:09:06 GMT-0700 (Pacific Daylight Time)","Mozilla/5.0 (Windows NT 6.1; Win64; x64) AppleWebKit/537.36 (KHTML, like Gecko) Chrome/86.0.4240.53 Safari/537.36",147,"[0.9, 0.5, 0.1]","[0.8, 0.4, 0.2]","[u'blue', u'black', u'red']","[u'left', u'middle', u'right']","[0.8, 0.4, 0.2]","[u'low', u'high', u'medium']","red",51,"right","medium","False","False",138,6900,NA
"A2NHFSO7GMM8QR","Wed Sep 30 2020 11:56:50 GMT-0700 (Pacific Daylight Time)","Wed Sep 30 2020 12:09:06 GMT-0700 (Pacific Daylight Time)","Mozilla/5.0 (Windows NT 6.1; Win64; x64) AppleWebKit/537.36 (KHTML, like Gecko) Chrome/86.0.4240.53 Safari/537.36",148,"[0.9, 0.5, 0.1]","[0.8, 0.4, 0.2]","[u'blue', u'black', u'red']","[u'left', u'middle', u'right']","[0.8, 0.4, 0.2]","[u'low', u'high', u'medium']","red",51,"right","medium","True","False",471,7000,NA
"A2NHFSO7GMM8QR","Wed Sep 30 2020 11:56:50 GMT-0700 (Pacific Daylight Time)","Wed Sep 30 2020 12:09:06 GMT-0700 (Pacific Daylight Time)","Mozilla/5.0 (Windows NT 6.1; Win64; x64) AppleWebKit/537.36 (KHTML, like Gecko) Chrome/86.0.4240.53 Safari/537.36",149,"[0.9, 0.5, 0.1]","[0.8, 0.4, 0.2]","[u'blue', u'black', u'red']","[u'left', u'middle', u'right']","[0.8, 0.4, 0.2]","[u'low', u'high', u'medium']","red",51,"right","medium","False","False",175,6950,NA
"A2NHFSO7GMM8QR","Wed Sep 30 2020 11:56:50 GMT-0700 (Pacific Daylight Time)","Wed Sep 30 2020 12:09:06 GMT-0700 (Pacific Daylight Time)","Mozilla/5.0 (Windows NT 6.1; Win64; x64) AppleWebKit/537.36 (KHTML, like Gecko) Chrome/86.0.4240.53 Safari/537.36",150,"[0.9, 0.5, 0.1]","[0.8, 0.4, 0.2]","[u'blue', u'black', u'red']","[u'left', u'middle', u'right']","[0.8, 0.4, 0.2]","[u'low', u'high', u'medium']","black",50,"middle","high","True","False",675,7050,NA
"A2NHFSO7GMM8QR","Wed Sep 30 2020 11:56:50 GMT-0700 (Pacific Daylight Time)","Wed Sep 30 2020 12:09:06 GMT-0700 (Pacific Daylight Time)","Mozilla/5.0 (Windows NT 6.1; Win64; x64) AppleWebKit/537.36 (KHTML, like Gecko) Chrome/86.0.4240.53 Safari/537.36",151,"[0.9, 0.5, 0.1]","[0.8, 0.4, 0.2]","[u'blue', u'black', u'red']","[u'left', u'middle', u'right']","[0.8, 0.4, 0.2]","[u'low', u'high', u'medium']","black",50,"middle","high","True","False",357,7150,NA
"A2NHFSO7GMM8QR","Wed Sep 30 2020 11:56:50 GMT-0700 (Pacific Daylight Time)","Wed Sep 30 2020 12:09:06 GMT-0700 (Pacific Daylight Time)","Mozilla/5.0 (Windows NT 6.1; Win64; x64) AppleWebKit/537.36 (KHTML, like Gecko) Chrome/86.0.4240.53 Safari/537.36",152,"[0.9, 0.5, 0.1]","[0.8, 0.4, 0.2]","[u'blue', u'black', u'red']","[u'left', u'middle', u'right']","[0.8, 0.4, 0.2]","[u'low', u'high', u'medium']","blue",49,"left","low","False","False",1316,7100,NA
"A2NHFSO7GMM8QR","Wed Sep 30 2020 11:56:50 GMT-0700 (Pacific Daylight Time)","Wed Sep 30 2020 12:09:06 GMT-0700 (Pacific Daylight Time)","Mozilla/5.0 (Windows NT 6.1; Win64; x64) AppleWebKit/537.36 (KHTML, like Gecko) Chrome/86.0.4240.53 Safari/537.36",153,"[0.9, 0.5, 0.1]","[0.8, 0.4, 0.2]","[u'blue', u'black', u'red']","[u'left', u'middle', u'right']","[0.8, 0.4, 0.2]","[u'low', u'high', u'medium']","red",51,"right","medium","False","False",954,7050,NA
"A2NHFSO7GMM8QR","Wed Sep 30 2020 11:56:50 GMT-0700 (Pacific Daylight Time)","Wed Sep 30 2020 12:09:06 GMT-0700 (Pacific Daylight Time)","Mozilla/5.0 (Windows NT 6.1; Win64; x64) AppleWebKit/537.36 (KHTML, like Gecko) Chrome/86.0.4240.53 Safari/537.36",154,"[0.9, 0.5, 0.1]","[0.8, 0.4, 0.2]","[u'blue', u'black', u'red']","[u'left', u'middle', u'right']","[0.8, 0.4, 0.2]","[u'low', u'high', u'medium']","blue",49,"left","low","True","False",517,7150,NA
"A2NHFSO7GMM8QR","Wed Sep 30 2020 11:56:50 GMT-0700 (Pacific Daylight Time)","Wed Sep 30 2020 12:09:06 GMT-0700 (Pacific Daylight Time)","Mozilla/5.0 (Windows NT 6.1; Win64; x64) AppleWebKit/537.36 (KHTML, like Gecko) Chrome/86.0.4240.53 Safari/537.36",155,"[0.9, 0.5, 0.1]","[0.8, 0.4, 0.2]","[u'blue', u'black', u'red']","[u'left', u'middle', u'right']","[0.8, 0.4, 0.2]","[u'low', u'high', u'medium']","blue",49,"left","low","True","False",1079,7250,NA
"A2NHFSO7GMM8QR","Wed Sep 30 2020 11:56:50 GMT-0700 (Pacific Daylight Time)","Wed Sep 30 2020 12:09:06 GMT-0700 (Pacific Daylight Time)","Mozilla/5.0 (Windows NT 6.1; Win64; x64) AppleWebKit/537.36 (KHTML, like Gecko) Chrome/86.0.4240.53 Safari/537.36",156,"[0.9, 0.5, 0.1]","[0.8, 0.4, 0.2]","[u'blue', u'black', u'red']","[u'left', u'middle', u'right']","[0.8, 0.4, 0.2]","[u'low', u'high', u'medium']","black",50,"middle","high","True","False",9053,7350,NA
"A2NHFSO7GMM8QR","Wed Sep 30 2020 11:56:50 GMT-0700 (Pacific Daylight Time)","Wed Sep 30 2020 12:09:06 GMT-0700 (Pacific Daylight Time)","Mozilla/5.0 (Windows NT 6.1; Win64; x64) AppleWebKit/537.36 (KHTML, like Gecko) Chrome/86.0.4240.53 Safari/537.36",157,"[0.9, 0.5, 0.1]","[0.8, 0.4, 0.2]","[u'blue', u'black', u'red']","[u'left', u'middle', u'right']","[0.8, 0.4, 0.2]","[u'low', u'high', u'medium']","red",51,"right","medium","False","False",1986,7300,NA
"A2NHFSO7GMM8QR","Wed Sep 30 2020 11:56:50 GMT-0700 (Pacific Daylight Time)","Wed Sep 30 2020 12:09:06 GMT-0700 (Pacific Daylight Time)","Mozilla/5.0 (Windows NT 6.1; Win64; x64) AppleWebKit/537.36 (KHTML, like Gecko) Chrome/86.0.4240.53 Safari/537.36",158,"[0.9, 0.5, 0.1]","[0.8, 0.4, 0.2]","[u'blue', u'black', u'red']","[u'left', u'middle', u'right']","[0.8, 0.4, 0.2]","[u'low', u'high', u'medium']","black",50,"middle","high","True","False",1251,7400,NA
"A2NHFSO7GMM8QR","Wed Sep 30 2020 11:56:50 GMT-0700 (Pacific Daylight Time)","Wed Sep 30 2020 12:09:06 GMT-0700 (Pacific Daylight Time)","Mozilla/5.0 (Windows NT 6.1; Win64; x64) AppleWebKit/537.36 (KHTML, like Gecko) Chrome/86.0.4240.53 Safari/537.36",159,"[0.9, 0.5, 0.1]","[0.8, 0.4, 0.2]","[u'blue', u'black', u'red']","[u'left', u'middle', u'right']","[0.8, 0.4, 0.2]","[u'low', u'high', u'medium']","blue",49,"left","low","False","False",604,7350,NA
"A2NHFSO7GMM8QR","Wed Sep 30 2020 11:56:50 GMT-0700 (Pacific Daylight Time)","Wed Sep 30 2020 12:09:06 GMT-0700 (Pacific Daylight Time)","Mozilla/5.0 (Windows NT 6.1; Win64; x64) AppleWebKit/537.36 (KHTML, like Gecko) Chrome/86.0.4240.53 Safari/537.36",160,"[0.9, 0.5, 0.1]","[0.8, 0.4, 0.2]","[u'blue', u'black', u'red']","[u'left', u'middle', u'right']","[0.8, 0.4, 0.2]","[u'low', u'high', u'medium']","red",51,"right","medium","False","False",738,7300,NA
