"src_subject_id","start_time","end_time","browser","index","first_half_probabilities","second_half_probabilities","deck_color","deck_position","deck_probabilities","deck_contingencies","response_color","key_press","response_position","response_probability","reward_type","trial_type","rt","reward_tally","exclusion_reason"
"ASC9DUCC64M3P","Thu Oct 01 2020 08:40:20 GMT-0700 (Pacific Daylight Time)","Thu Oct 01 2020 08:48:43 GMT-0700 (Pacific Daylight Time)","Mozilla/5.0 (Macintosh; Intel Mac OS X 10_14_6) AppleWebKit/537.36 (KHTML, like Gecko) Chrome/85.0.4183.121 Safari/537.36",1,"[0.9, 0.5, 0.1]","[0.8, 0.4, 0.2]","[u'red', u'black', u'blue']","[u'left', u'middle', u'right']","[0.9, 0.5, 0.1]","[u'low', u'medium', u'high']","red",49,"left","low","False","False",1657,-50,NA
"ASC9DUCC64M3P","Thu Oct 01 2020 08:40:20 GMT-0700 (Pacific Daylight Time)","Thu Oct 01 2020 08:48:43 GMT-0700 (Pacific Daylight Time)","Mozilla/5.0 (Macintosh; Intel Mac OS X 10_14_6) AppleWebKit/537.36 (KHTML, like Gecko) Chrome/85.0.4183.121 Safari/537.36",2,"[0.9, 0.5, 0.1]","[0.8, 0.4, 0.2]","[u'red', u'black', u'blue']","[u'left', u'middle', u'right']","[0.9, 0.5, 0.1]","[u'low', u'medium', u'high']","black",50,"middle","medium","False","False",806,-100,NA
"ASC9DUCC64M3P","Thu Oct 01 2020 08:40:20 GMT-0700 (Pacific Daylight Time)","Thu Oct 01 2020 08:48:43 GMT-0700 (Pacific Daylight Time)","Mozilla/5.0 (Macintosh; Intel Mac OS X 10_14_6) AppleWebKit/537.36 (KHTML, like Gecko) Chrome/85.0.4183.121 Safari/537.36",3,"[0.9, 0.5, 0.1]","[0.8, 0.4, 0.2]","[u'red', u'black', u'blue']","[u'left', u'middle', u'right']","[0.9, 0.5, 0.1]","[u'low', u'medium', u'high']","blue",51,"right","high","True","False",442,0,NA
"ASC9DUCC64M3P","Thu Oct 01 2020 08:40:20 GMT-0700 (Pacific Daylight Time)","Thu Oct 01 2020 08:48:43 GMT-0700 (Pacific Daylight Time)","Mozilla/5.0 (Macintosh; Intel Mac OS X 10_14_6) AppleWebKit/537.36 (KHTML, like Gecko) Chrome/85.0.4183.121 Safari/537.36",4,"[0.9, 0.5, 0.1]","[0.8, 0.4, 0.2]","[u'red', u'black', u'blue']","[u'left', u'middle', u'right']","[0.9, 0.5, 0.1]","[u'low', u'medium', u'high']","blue",51,"right","high","True","False",4664,100,NA
"ASC9DUCC64M3P","Thu Oct 01 2020 08:40:20 GMT-0700 (Pacific Daylight Time)","Thu Oct 01 2020 08:48:43 GMT-0700 (Pacific Daylight Time)","Mozilla/5.0 (Macintosh; Intel Mac OS X 10_14_6) AppleWebKit/537.36 (KHTML, like Gecko) Chrome/85.0.4183.121 Safari/537.36",5,"[0.9, 0.5, 0.1]","[0.8, 0.4, 0.2]","[u'red', u'black', u'blue']","[u'left', u'middle', u'right']","[0.9, 0.5, 0.1]","[u'low', u'medium', u'high']","blue",51,"right","high","True","False",1503,200,NA
"ASC9DUCC64M3P","Thu Oct 01 2020 08:40:20 GMT-0700 (Pacific Daylight Time)","Thu Oct 01 2020 08:48:43 GMT-0700 (Pacific Daylight Time)","Mozilla/5.0 (Macintosh; Intel Mac OS X 10_14_6) AppleWebKit/537.36 (KHTML, like Gecko) Chrome/85.0.4183.121 Safari/537.36",6,"[0.9, 0.5, 0.1]","[0.8, 0.4, 0.2]","[u'red', u'black', u'blue']","[u'left', u'middle', u'right']","[0.9, 0.5, 0.1]","[u'low', u'medium', u'high']","blue",51,"right","high","True","False",670,300,NA
"ASC9DUCC64M3P","Thu Oct 01 2020 08:40:20 GMT-0700 (Pacific Daylight Time)","Thu Oct 01 2020 08:48:43 GMT-0700 (Pacific Daylight Time)","Mozilla/5.0 (Macintosh; Intel Mac OS X 10_14_6) AppleWebKit/537.36 (KHTML, like Gecko) Chrome/85.0.4183.121 Safari/537.36",7,"[0.9, 0.5, 0.1]","[0.8, 0.4, 0.2]","[u'red', u'black', u'blue']","[u'left', u'middle', u'right']","[0.9, 0.5, 0.1]","[u'low', u'medium', u'high']","blue",51,"right","high","True","False",388,400,NA
"ASC9DUCC64M3P","Thu Oct 01 2020 08:40:20 GMT-0700 (Pacific Daylight Time)","Thu Oct 01 2020 08:48:43 GMT-0700 (Pacific Daylight Time)","Mozilla/5.0 (Macintosh; Intel Mac OS X 10_14_6) AppleWebKit/537.36 (KHTML, like Gecko) Chrome/85.0.4183.121 Safari/537.36",8,"[0.9, 0.5, 0.1]","[0.8, 0.4, 0.2]","[u'red', u'black', u'blue']","[u'left', u'middle', u'right']","[0.9, 0.5, 0.1]","[u'low', u'medium', u'high']","blue",51,"right","high","True","False",937,500,NA
"ASC9DUCC64M3P","Thu Oct 01 2020 08:40:20 GMT-0700 (Pacific Daylight Time)","Thu Oct 01 2020 08:48:43 GMT-0700 (Pacific Daylight Time)","Mozilla/5.0 (Macintosh; Intel Mac OS X 10_14_6) AppleWebKit/537.36 (KHTML, like Gecko) Chrome/85.0.4183.121 Safari/537.36",9,"[0.9, 0.5, 0.1]","[0.8, 0.4, 0.2]","[u'red', u'black', u'blue']","[u'left', u'middle', u'right']","[0.9, 0.5, 0.1]","[u'low', u'medium', u'high']","blue",51,"right","high","True","False",231,600,NA
"ASC9DUCC64M3P","Thu Oct 01 2020 08:40:20 GMT-0700 (Pacific Daylight Time)","Thu Oct 01 2020 08:48:43 GMT-0700 (Pacific Daylight Time)","Mozilla/5.0 (Macintosh; Intel Mac OS X 10_14_6) AppleWebKit/537.36 (KHTML, like Gecko) Chrome/85.0.4183.121 Safari/537.36",10,"[0.9, 0.5, 0.1]","[0.8, 0.4, 0.2]","[u'red', u'black', u'blue']","[u'left', u'middle', u'right']","[0.9, 0.5, 0.1]","[u'low', u'medium', u'high']","blue",51,"right","high","False","False",680,550,NA
"ASC9DUCC64M3P","Thu Oct 01 2020 08:40:20 GMT-0700 (Pacific Daylight Time)","Thu Oct 01 2020 08:48:43 GMT-0700 (Pacific Daylight Time)","Mozilla/5.0 (Macintosh; Intel Mac OS X 10_14_6) AppleWebKit/537.36 (KHTML, like Gecko) Chrome/85.0.4183.121 Safari/537.36",11,"[0.9, 0.5, 0.1]","[0.8, 0.4, 0.2]","[u'red', u'black', u'blue']","[u'left', u'middle', u'right']","[0.9, 0.5, 0.1]","[u'low', u'medium', u'high']","red",49,"left","low","False","False",1861,500,NA
"ASC9DUCC64M3P","Thu Oct 01 2020 08:40:20 GMT-0700 (Pacific Daylight Time)","Thu Oct 01 2020 08:48:43 GMT-0700 (Pacific Daylight Time)","Mozilla/5.0 (Macintosh; Intel Mac OS X 10_14_6) AppleWebKit/537.36 (KHTML, like Gecko) Chrome/85.0.4183.121 Safari/537.36",12,"[0.9, 0.5, 0.1]","[0.8, 0.4, 0.2]","[u'red', u'black', u'blue']","[u'left', u'middle', u'right']","[0.9, 0.5, 0.1]","[u'low', u'medium', u'high']","black",50,"middle","medium","False","False",2255,450,NA
"ASC9DUCC64M3P","Thu Oct 01 2020 08:40:20 GMT-0700 (Pacific Daylight Time)","Thu Oct 01 2020 08:48:43 GMT-0700 (Pacific Daylight Time)","Mozilla/5.0 (Macintosh; Intel Mac OS X 10_14_6) AppleWebKit/537.36 (KHTML, like Gecko) Chrome/85.0.4183.121 Safari/537.36",13,"[0.9, 0.5, 0.1]","[0.8, 0.4, 0.2]","[u'red', u'black', u'blue']","[u'left', u'middle', u'right']","[0.9, 0.5, 0.1]","[u'low', u'medium', u'high']","blue",51,"right","high","True","False",2512,550,NA
"ASC9DUCC64M3P","Thu Oct 01 2020 08:40:20 GMT-0700 (Pacific Daylight Time)","Thu Oct 01 2020 08:48:43 GMT-0700 (Pacific Daylight Time)","Mozilla/5.0 (Macintosh; Intel Mac OS X 10_14_6) AppleWebKit/537.36 (KHTML, like Gecko) Chrome/85.0.4183.121 Safari/537.36",14,"[0.9, 0.5, 0.1]","[0.8, 0.4, 0.2]","[u'red', u'black', u'blue']","[u'left', u'middle', u'right']","[0.9, 0.5, 0.1]","[u'low', u'medium', u'high']","blue",51,"right","high","True","False",839,650,NA
"ASC9DUCC64M3P","Thu Oct 01 2020 08:40:20 GMT-0700 (Pacific Daylight Time)","Thu Oct 01 2020 08:48:43 GMT-0700 (Pacific Daylight Time)","Mozilla/5.0 (Macintosh; Intel Mac OS X 10_14_6) AppleWebKit/537.36 (KHTML, like Gecko) Chrome/85.0.4183.121 Safari/537.36",15,"[0.9, 0.5, 0.1]","[0.8, 0.4, 0.2]","[u'red', u'black', u'blue']","[u'left', u'middle', u'right']","[0.9, 0.5, 0.1]","[u'low', u'medium', u'high']","blue",51,"right","high","True","False",513,750,NA
"ASC9DUCC64M3P","Thu Oct 01 2020 08:40:20 GMT-0700 (Pacific Daylight Time)","Thu Oct 01 2020 08:48:43 GMT-0700 (Pacific Daylight Time)","Mozilla/5.0 (Macintosh; Intel Mac OS X 10_14_6) AppleWebKit/537.36 (KHTML, like Gecko) Chrome/85.0.4183.121 Safari/537.36",16,"[0.9, 0.5, 0.1]","[0.8, 0.4, 0.2]","[u'red', u'black', u'blue']","[u'left', u'middle', u'right']","[0.9, 0.5, 0.1]","[u'low', u'medium', u'high']","blue",51,"right","high","True","False",456,850,NA
"ASC9DUCC64M3P","Thu Oct 01 2020 08:40:20 GMT-0700 (Pacific Daylight Time)","Thu Oct 01 2020 08:48:43 GMT-0700 (Pacific Daylight Time)","Mozilla/5.0 (Macintosh; Intel Mac OS X 10_14_6) AppleWebKit/537.36 (KHTML, like Gecko) Chrome/85.0.4183.121 Safari/537.36",17,"[0.9, 0.5, 0.1]","[0.8, 0.4, 0.2]","[u'red', u'black', u'blue']","[u'left', u'middle', u'right']","[0.9, 0.5, 0.1]","[u'low', u'medium', u'high']","blue",51,"right","high","True","False",401,950,NA
"ASC9DUCC64M3P","Thu Oct 01 2020 08:40:20 GMT-0700 (Pacific Daylight Time)","Thu Oct 01 2020 08:48:43 GMT-0700 (Pacific Daylight Time)","Mozilla/5.0 (Macintosh; Intel Mac OS X 10_14_6) AppleWebKit/537.36 (KHTML, like Gecko) Chrome/85.0.4183.121 Safari/537.36",18,"[0.9, 0.5, 0.1]","[0.8, 0.4, 0.2]","[u'red', u'black', u'blue']","[u'left', u'middle', u'right']","[0.9, 0.5, 0.1]","[u'low', u'medium', u'high']","blue",51,"right","high","True","False",444,1050,NA
"ASC9DUCC64M3P","Thu Oct 01 2020 08:40:20 GMT-0700 (Pacific Daylight Time)","Thu Oct 01 2020 08:48:43 GMT-0700 (Pacific Daylight Time)","Mozilla/5.0 (Macintosh; Intel Mac OS X 10_14_6) AppleWebKit/537.36 (KHTML, like Gecko) Chrome/85.0.4183.121 Safari/537.36",19,"[0.9, 0.5, 0.1]","[0.8, 0.4, 0.2]","[u'red', u'black', u'blue']","[u'left', u'middle', u'right']","[0.9, 0.5, 0.1]","[u'low', u'medium', u'high']","blue",51,"right","high","True","False",974,1150,NA
"ASC9DUCC64M3P","Thu Oct 01 2020 08:40:20 GMT-0700 (Pacific Daylight Time)","Thu Oct 01 2020 08:48:43 GMT-0700 (Pacific Daylight Time)","Mozilla/5.0 (Macintosh; Intel Mac OS X 10_14_6) AppleWebKit/537.36 (KHTML, like Gecko) Chrome/85.0.4183.121 Safari/537.36",20,"[0.9, 0.5, 0.1]","[0.8, 0.4, 0.2]","[u'red', u'black', u'blue']","[u'left', u'middle', u'right']","[0.9, 0.5, 0.1]","[u'low', u'medium', u'high']","blue",51,"right","high","False","False",534,1100,NA
"ASC9DUCC64M3P","Thu Oct 01 2020 08:40:20 GMT-0700 (Pacific Daylight Time)","Thu Oct 01 2020 08:48:43 GMT-0700 (Pacific Daylight Time)","Mozilla/5.0 (Macintosh; Intel Mac OS X 10_14_6) AppleWebKit/537.36 (KHTML, like Gecko) Chrome/85.0.4183.121 Safari/537.36",21,"[0.9, 0.5, 0.1]","[0.8, 0.4, 0.2]","[u'red', u'black', u'blue']","[u'left', u'middle', u'right']","[0.9, 0.5, 0.1]","[u'low', u'medium', u'high']","red",49,"left","low","False","False",670,1050,NA
"ASC9DUCC64M3P","Thu Oct 01 2020 08:40:20 GMT-0700 (Pacific Daylight Time)","Thu Oct 01 2020 08:48:43 GMT-0700 (Pacific Daylight Time)","Mozilla/5.0 (Macintosh; Intel Mac OS X 10_14_6) AppleWebKit/537.36 (KHTML, like Gecko) Chrome/85.0.4183.121 Safari/537.36",22,"[0.9, 0.5, 0.1]","[0.8, 0.4, 0.2]","[u'red', u'black', u'blue']","[u'left', u'middle', u'right']","[0.9, 0.5, 0.1]","[u'low', u'medium', u'high']","black",50,"middle","medium","False","False",399,1000,NA
"ASC9DUCC64M3P","Thu Oct 01 2020 08:40:20 GMT-0700 (Pacific Daylight Time)","Thu Oct 01 2020 08:48:43 GMT-0700 (Pacific Daylight Time)","Mozilla/5.0 (Macintosh; Intel Mac OS X 10_14_6) AppleWebKit/537.36 (KHTML, like Gecko) Chrome/85.0.4183.121 Safari/537.36",23,"[0.9, 0.5, 0.1]","[0.8, 0.4, 0.2]","[u'red', u'black', u'blue']","[u'left', u'middle', u'right']","[0.9, 0.5, 0.1]","[u'low', u'medium', u'high']","blue",51,"right","high","False","False",424,950,NA
"ASC9DUCC64M3P","Thu Oct 01 2020 08:40:20 GMT-0700 (Pacific Daylight Time)","Thu Oct 01 2020 08:48:43 GMT-0700 (Pacific Daylight Time)","Mozilla/5.0 (Macintosh; Intel Mac OS X 10_14_6) AppleWebKit/537.36 (KHTML, like Gecko) Chrome/85.0.4183.121 Safari/537.36",24,"[0.9, 0.5, 0.1]","[0.8, 0.4, 0.2]","[u'red', u'black', u'blue']","[u'left', u'middle', u'right']","[0.9, 0.5, 0.1]","[u'low', u'medium', u'high']","red",49,"left","low","False","False",715,900,NA
"ASC9DUCC64M3P","Thu Oct 01 2020 08:40:20 GMT-0700 (Pacific Daylight Time)","Thu Oct 01 2020 08:48:43 GMT-0700 (Pacific Daylight Time)","Mozilla/5.0 (Macintosh; Intel Mac OS X 10_14_6) AppleWebKit/537.36 (KHTML, like Gecko) Chrome/85.0.4183.121 Safari/537.36",25,"[0.9, 0.5, 0.1]","[0.8, 0.4, 0.2]","[u'red', u'black', u'blue']","[u'left', u'middle', u'right']","[0.9, 0.5, 0.1]","[u'low', u'medium', u'high']","black",50,"middle","medium","True","False",355,1000,NA
"ASC9DUCC64M3P","Thu Oct 01 2020 08:40:20 GMT-0700 (Pacific Daylight Time)","Thu Oct 01 2020 08:48:43 GMT-0700 (Pacific Daylight Time)","Mozilla/5.0 (Macintosh; Intel Mac OS X 10_14_6) AppleWebKit/537.36 (KHTML, like Gecko) Chrome/85.0.4183.121 Safari/537.36",26,"[0.9, 0.5, 0.1]","[0.8, 0.4, 0.2]","[u'red', u'black', u'blue']","[u'left', u'middle', u'right']","[0.9, 0.5, 0.1]","[u'low', u'medium', u'high']","black",50,"middle","medium","True","False",569,1100,NA
"ASC9DUCC64M3P","Thu Oct 01 2020 08:40:20 GMT-0700 (Pacific Daylight Time)","Thu Oct 01 2020 08:48:43 GMT-0700 (Pacific Daylight Time)","Mozilla/5.0 (Macintosh; Intel Mac OS X 10_14_6) AppleWebKit/537.36 (KHTML, like Gecko) Chrome/85.0.4183.121 Safari/537.36",27,"[0.9, 0.5, 0.1]","[0.8, 0.4, 0.2]","[u'red', u'black', u'blue']","[u'left', u'middle', u'right']","[0.9, 0.5, 0.1]","[u'low', u'medium', u'high']","black",50,"middle","medium","True","False",489,1200,NA
"ASC9DUCC64M3P","Thu Oct 01 2020 08:40:20 GMT-0700 (Pacific Daylight Time)","Thu Oct 01 2020 08:48:43 GMT-0700 (Pacific Daylight Time)","Mozilla/5.0 (Macintosh; Intel Mac OS X 10_14_6) AppleWebKit/537.36 (KHTML, like Gecko) Chrome/85.0.4183.121 Safari/537.36",28,"[0.9, 0.5, 0.1]","[0.8, 0.4, 0.2]","[u'red', u'black', u'blue']","[u'left', u'middle', u'right']","[0.9, 0.5, 0.1]","[u'low', u'medium', u'high']","black",50,"middle","medium","False","False",490,1150,NA
"ASC9DUCC64M3P","Thu Oct 01 2020 08:40:20 GMT-0700 (Pacific Daylight Time)","Thu Oct 01 2020 08:48:43 GMT-0700 (Pacific Daylight Time)","Mozilla/5.0 (Macintosh; Intel Mac OS X 10_14_6) AppleWebKit/537.36 (KHTML, like Gecko) Chrome/85.0.4183.121 Safari/537.36",29,"[0.9, 0.5, 0.1]","[0.8, 0.4, 0.2]","[u'red', u'black', u'blue']","[u'left', u'middle', u'right']","[0.9, 0.5, 0.1]","[u'low', u'medium', u'high']","black",50,"middle","medium","False","False",804,1100,NA
"ASC9DUCC64M3P","Thu Oct 01 2020 08:40:20 GMT-0700 (Pacific Daylight Time)","Thu Oct 01 2020 08:48:43 GMT-0700 (Pacific Daylight Time)","Mozilla/5.0 (Macintosh; Intel Mac OS X 10_14_6) AppleWebKit/537.36 (KHTML, like Gecko) Chrome/85.0.4183.121 Safari/537.36",30,"[0.9, 0.5, 0.1]","[0.8, 0.4, 0.2]","[u'red', u'black', u'blue']","[u'left', u'middle', u'right']","[0.9, 0.5, 0.1]","[u'low', u'medium', u'high']","blue",51,"right","high","True","False",367,1200,NA
"ASC9DUCC64M3P","Thu Oct 01 2020 08:40:20 GMT-0700 (Pacific Daylight Time)","Thu Oct 01 2020 08:48:43 GMT-0700 (Pacific Daylight Time)","Mozilla/5.0 (Macintosh; Intel Mac OS X 10_14_6) AppleWebKit/537.36 (KHTML, like Gecko) Chrome/85.0.4183.121 Safari/537.36",31,"[0.9, 0.5, 0.1]","[0.8, 0.4, 0.2]","[u'red', u'black', u'blue']","[u'left', u'middle', u'right']","[0.9, 0.5, 0.1]","[u'low', u'medium', u'high']","blue",51,"right","high","True","False",546,1300,NA
"ASC9DUCC64M3P","Thu Oct 01 2020 08:40:20 GMT-0700 (Pacific Daylight Time)","Thu Oct 01 2020 08:48:43 GMT-0700 (Pacific Daylight Time)","Mozilla/5.0 (Macintosh; Intel Mac OS X 10_14_6) AppleWebKit/537.36 (KHTML, like Gecko) Chrome/85.0.4183.121 Safari/537.36",32,"[0.9, 0.5, 0.1]","[0.8, 0.4, 0.2]","[u'red', u'black', u'blue']","[u'left', u'middle', u'right']","[0.9, 0.5, 0.1]","[u'low', u'medium', u'high']","blue",51,"right","high","True","False",513,1400,NA
"ASC9DUCC64M3P","Thu Oct 01 2020 08:40:20 GMT-0700 (Pacific Daylight Time)","Thu Oct 01 2020 08:48:43 GMT-0700 (Pacific Daylight Time)","Mozilla/5.0 (Macintosh; Intel Mac OS X 10_14_6) AppleWebKit/537.36 (KHTML, like Gecko) Chrome/85.0.4183.121 Safari/537.36",33,"[0.9, 0.5, 0.1]","[0.8, 0.4, 0.2]","[u'red', u'black', u'blue']","[u'left', u'middle', u'right']","[0.9, 0.5, 0.1]","[u'low', u'medium', u'high']","blue",51,"right","high","True","False",645,1500,NA
"ASC9DUCC64M3P","Thu Oct 01 2020 08:40:20 GMT-0700 (Pacific Daylight Time)","Thu Oct 01 2020 08:48:43 GMT-0700 (Pacific Daylight Time)","Mozilla/5.0 (Macintosh; Intel Mac OS X 10_14_6) AppleWebKit/537.36 (KHTML, like Gecko) Chrome/85.0.4183.121 Safari/537.36",34,"[0.9, 0.5, 0.1]","[0.8, 0.4, 0.2]","[u'red', u'black', u'blue']","[u'left', u'middle', u'right']","[0.9, 0.5, 0.1]","[u'low', u'medium', u'high']","blue",51,"right","high","True","False",713,1600,NA
"ASC9DUCC64M3P","Thu Oct 01 2020 08:40:20 GMT-0700 (Pacific Daylight Time)","Thu Oct 01 2020 08:48:43 GMT-0700 (Pacific Daylight Time)","Mozilla/5.0 (Macintosh; Intel Mac OS X 10_14_6) AppleWebKit/537.36 (KHTML, like Gecko) Chrome/85.0.4183.121 Safari/537.36",35,"[0.9, 0.5, 0.1]","[0.8, 0.4, 0.2]","[u'red', u'black', u'blue']","[u'left', u'middle', u'right']","[0.9, 0.5, 0.1]","[u'low', u'medium', u'high']","blue",51,"right","high","True","False",578,1700,NA
"ASC9DUCC64M3P","Thu Oct 01 2020 08:40:20 GMT-0700 (Pacific Daylight Time)","Thu Oct 01 2020 08:48:43 GMT-0700 (Pacific Daylight Time)","Mozilla/5.0 (Macintosh; Intel Mac OS X 10_14_6) AppleWebKit/537.36 (KHTML, like Gecko) Chrome/85.0.4183.121 Safari/537.36",36,"[0.9, 0.5, 0.1]","[0.8, 0.4, 0.2]","[u'red', u'black', u'blue']","[u'left', u'middle', u'right']","[0.9, 0.5, 0.1]","[u'low', u'medium', u'high']","blue",51,"right","high","True","False",513,1800,NA
"ASC9DUCC64M3P","Thu Oct 01 2020 08:40:20 GMT-0700 (Pacific Daylight Time)","Thu Oct 01 2020 08:48:43 GMT-0700 (Pacific Daylight Time)","Mozilla/5.0 (Macintosh; Intel Mac OS X 10_14_6) AppleWebKit/537.36 (KHTML, like Gecko) Chrome/85.0.4183.121 Safari/537.36",37,"[0.9, 0.5, 0.1]","[0.8, 0.4, 0.2]","[u'red', u'black', u'blue']","[u'left', u'middle', u'right']","[0.9, 0.5, 0.1]","[u'low', u'medium', u'high']","blue",51,"right","high","True","False",453,1900,NA
"ASC9DUCC64M3P","Thu Oct 01 2020 08:40:20 GMT-0700 (Pacific Daylight Time)","Thu Oct 01 2020 08:48:43 GMT-0700 (Pacific Daylight Time)","Mozilla/5.0 (Macintosh; Intel Mac OS X 10_14_6) AppleWebKit/537.36 (KHTML, like Gecko) Chrome/85.0.4183.121 Safari/537.36",38,"[0.9, 0.5, 0.1]","[0.8, 0.4, 0.2]","[u'red', u'black', u'blue']","[u'left', u'middle', u'right']","[0.9, 0.5, 0.1]","[u'low', u'medium', u'high']","blue",51,"right","high","True","True",489,2000,NA
"ASC9DUCC64M3P","Thu Oct 01 2020 08:40:20 GMT-0700 (Pacific Daylight Time)","Thu Oct 01 2020 08:48:43 GMT-0700 (Pacific Daylight Time)","Mozilla/5.0 (Macintosh; Intel Mac OS X 10_14_6) AppleWebKit/537.36 (KHTML, like Gecko) Chrome/85.0.4183.121 Safari/537.36",39,"[0.9, 0.5, 0.1]","[0.8, 0.4, 0.2]","[u'red', u'black', u'blue']","[u'left', u'middle', u'right']","[0.9, 0.5, 0.1]","[u'medium', u'high', u'low']","blue",51,"right","low","False","False",464,1950,NA
"ASC9DUCC64M3P","Thu Oct 01 2020 08:40:20 GMT-0700 (Pacific Daylight Time)","Thu Oct 01 2020 08:48:43 GMT-0700 (Pacific Daylight Time)","Mozilla/5.0 (Macintosh; Intel Mac OS X 10_14_6) AppleWebKit/537.36 (KHTML, like Gecko) Chrome/85.0.4183.121 Safari/537.36",40,"[0.9, 0.5, 0.1]","[0.8, 0.4, 0.2]","[u'red', u'black', u'blue']","[u'left', u'middle', u'right']","[0.9, 0.5, 0.1]","[u'medium', u'high', u'low']","black",50,"middle","high","True","False",927,2050,NA
"ASC9DUCC64M3P","Thu Oct 01 2020 08:40:20 GMT-0700 (Pacific Daylight Time)","Thu Oct 01 2020 08:48:43 GMT-0700 (Pacific Daylight Time)","Mozilla/5.0 (Macintosh; Intel Mac OS X 10_14_6) AppleWebKit/537.36 (KHTML, like Gecko) Chrome/85.0.4183.121 Safari/537.36",41,"[0.9, 0.5, 0.1]","[0.8, 0.4, 0.2]","[u'red', u'black', u'blue']","[u'left', u'middle', u'right']","[0.9, 0.5, 0.1]","[u'high', u'medium', u'low']","blue",51,"right","low","False","False",1131,2000,NA
"ASC9DUCC64M3P","Thu Oct 01 2020 08:40:20 GMT-0700 (Pacific Daylight Time)","Thu Oct 01 2020 08:48:43 GMT-0700 (Pacific Daylight Time)","Mozilla/5.0 (Macintosh; Intel Mac OS X 10_14_6) AppleWebKit/537.36 (KHTML, like Gecko) Chrome/85.0.4183.121 Safari/537.36",42,"[0.9, 0.5, 0.1]","[0.8, 0.4, 0.2]","[u'red', u'black', u'blue']","[u'left', u'middle', u'right']","[0.9, 0.5, 0.1]","[u'high', u'medium', u'low']","black",50,"middle","medium","False","False",408,1950,NA
"ASC9DUCC64M3P","Thu Oct 01 2020 08:40:20 GMT-0700 (Pacific Daylight Time)","Thu Oct 01 2020 08:48:43 GMT-0700 (Pacific Daylight Time)","Mozilla/5.0 (Macintosh; Intel Mac OS X 10_14_6) AppleWebKit/537.36 (KHTML, like Gecko) Chrome/85.0.4183.121 Safari/537.36",43,"[0.9, 0.5, 0.1]","[0.8, 0.4, 0.2]","[u'red', u'black', u'blue']","[u'left', u'middle', u'right']","[0.9, 0.5, 0.1]","[u'high', u'medium', u'low']","red",49,"left","high","True","False",323,2050,NA
"ASC9DUCC64M3P","Thu Oct 01 2020 08:40:20 GMT-0700 (Pacific Daylight Time)","Thu Oct 01 2020 08:48:43 GMT-0700 (Pacific Daylight Time)","Mozilla/5.0 (Macintosh; Intel Mac OS X 10_14_6) AppleWebKit/537.36 (KHTML, like Gecko) Chrome/85.0.4183.121 Safari/537.36",44,"[0.9, 0.5, 0.1]","[0.8, 0.4, 0.2]","[u'red', u'black', u'blue']","[u'left', u'middle', u'right']","[0.9, 0.5, 0.1]","[u'high', u'medium', u'low']","red",49,"left","high","True","False",479,2150,NA
"ASC9DUCC64M3P","Thu Oct 01 2020 08:40:20 GMT-0700 (Pacific Daylight Time)","Thu Oct 01 2020 08:48:43 GMT-0700 (Pacific Daylight Time)","Mozilla/5.0 (Macintosh; Intel Mac OS X 10_14_6) AppleWebKit/537.36 (KHTML, like Gecko) Chrome/85.0.4183.121 Safari/537.36",45,"[0.9, 0.5, 0.1]","[0.8, 0.4, 0.2]","[u'red', u'black', u'blue']","[u'left', u'middle', u'right']","[0.9, 0.5, 0.1]","[u'high', u'medium', u'low']","red",49,"left","high","True","False",434,2250,NA
"ASC9DUCC64M3P","Thu Oct 01 2020 08:40:20 GMT-0700 (Pacific Daylight Time)","Thu Oct 01 2020 08:48:43 GMT-0700 (Pacific Daylight Time)","Mozilla/5.0 (Macintosh; Intel Mac OS X 10_14_6) AppleWebKit/537.36 (KHTML, like Gecko) Chrome/85.0.4183.121 Safari/537.36",46,"[0.9, 0.5, 0.1]","[0.8, 0.4, 0.2]","[u'red', u'black', u'blue']","[u'left', u'middle', u'right']","[0.9, 0.5, 0.1]","[u'high', u'medium', u'low']","red",49,"left","high","True","False",444,2350,NA
"ASC9DUCC64M3P","Thu Oct 01 2020 08:40:20 GMT-0700 (Pacific Daylight Time)","Thu Oct 01 2020 08:48:43 GMT-0700 (Pacific Daylight Time)","Mozilla/5.0 (Macintosh; Intel Mac OS X 10_14_6) AppleWebKit/537.36 (KHTML, like Gecko) Chrome/85.0.4183.121 Safari/537.36",47,"[0.9, 0.5, 0.1]","[0.8, 0.4, 0.2]","[u'red', u'black', u'blue']","[u'left', u'middle', u'right']","[0.9, 0.5, 0.1]","[u'high', u'medium', u'low']","red",49,"left","high","True","False",491,2450,NA
"ASC9DUCC64M3P","Thu Oct 01 2020 08:40:20 GMT-0700 (Pacific Daylight Time)","Thu Oct 01 2020 08:48:43 GMT-0700 (Pacific Daylight Time)","Mozilla/5.0 (Macintosh; Intel Mac OS X 10_14_6) AppleWebKit/537.36 (KHTML, like Gecko) Chrome/85.0.4183.121 Safari/537.36",48,"[0.9, 0.5, 0.1]","[0.8, 0.4, 0.2]","[u'red', u'black', u'blue']","[u'left', u'middle', u'right']","[0.9, 0.5, 0.1]","[u'high', u'medium', u'low']","red",49,"left","high","True","False",457,2550,NA
"ASC9DUCC64M3P","Thu Oct 01 2020 08:40:20 GMT-0700 (Pacific Daylight Time)","Thu Oct 01 2020 08:48:43 GMT-0700 (Pacific Daylight Time)","Mozilla/5.0 (Macintosh; Intel Mac OS X 10_14_6) AppleWebKit/537.36 (KHTML, like Gecko) Chrome/85.0.4183.121 Safari/537.36",49,"[0.9, 0.5, 0.1]","[0.8, 0.4, 0.2]","[u'red', u'black', u'blue']","[u'left', u'middle', u'right']","[0.9, 0.5, 0.1]","[u'high', u'medium', u'low']","red",49,"left","high","True","False",815,2650,NA
"ASC9DUCC64M3P","Thu Oct 01 2020 08:40:20 GMT-0700 (Pacific Daylight Time)","Thu Oct 01 2020 08:48:43 GMT-0700 (Pacific Daylight Time)","Mozilla/5.0 (Macintosh; Intel Mac OS X 10_14_6) AppleWebKit/537.36 (KHTML, like Gecko) Chrome/85.0.4183.121 Safari/537.36",50,"[0.9, 0.5, 0.1]","[0.8, 0.4, 0.2]","[u'red', u'black', u'blue']","[u'left', u'middle', u'right']","[0.9, 0.5, 0.1]","[u'high', u'medium', u'low']","red",49,"left","high","True","False",524,2750,NA
"ASC9DUCC64M3P","Thu Oct 01 2020 08:40:20 GMT-0700 (Pacific Daylight Time)","Thu Oct 01 2020 08:48:43 GMT-0700 (Pacific Daylight Time)","Mozilla/5.0 (Macintosh; Intel Mac OS X 10_14_6) AppleWebKit/537.36 (KHTML, like Gecko) Chrome/85.0.4183.121 Safari/537.36",51,"[0.9, 0.5, 0.1]","[0.8, 0.4, 0.2]","[u'red', u'black', u'blue']","[u'left', u'middle', u'right']","[0.9, 0.5, 0.1]","[u'high', u'medium', u'low']","red",49,"left","high","True","True",457,2850,NA
"ASC9DUCC64M3P","Thu Oct 01 2020 08:40:20 GMT-0700 (Pacific Daylight Time)","Thu Oct 01 2020 08:48:43 GMT-0700 (Pacific Daylight Time)","Mozilla/5.0 (Macintosh; Intel Mac OS X 10_14_6) AppleWebKit/537.36 (KHTML, like Gecko) Chrome/85.0.4183.121 Safari/537.36",52,"[0.9, 0.5, 0.1]","[0.8, 0.4, 0.2]","[u'red', u'black', u'blue']","[u'left', u'middle', u'right']","[0.9, 0.5, 0.1]","[u'low', u'medium', u'high']","red",49,"left","low","False","False",3043,2800,NA
"ASC9DUCC64M3P","Thu Oct 01 2020 08:40:20 GMT-0700 (Pacific Daylight Time)","Thu Oct 01 2020 08:48:43 GMT-0700 (Pacific Daylight Time)","Mozilla/5.0 (Macintosh; Intel Mac OS X 10_14_6) AppleWebKit/537.36 (KHTML, like Gecko) Chrome/85.0.4183.121 Safari/537.36",53,"[0.9, 0.5, 0.1]","[0.8, 0.4, 0.2]","[u'red', u'black', u'blue']","[u'left', u'middle', u'right']","[0.9, 0.5, 0.1]","[u'low', u'medium', u'high']","black",50,"middle","medium","True","False",24,2900,NA
"ASC9DUCC64M3P","Thu Oct 01 2020 08:40:20 GMT-0700 (Pacific Daylight Time)","Thu Oct 01 2020 08:48:43 GMT-0700 (Pacific Daylight Time)","Mozilla/5.0 (Macintosh; Intel Mac OS X 10_14_6) AppleWebKit/537.36 (KHTML, like Gecko) Chrome/85.0.4183.121 Safari/537.36",54,"[0.9, 0.5, 0.1]","[0.8, 0.4, 0.2]","[u'red', u'black', u'blue']","[u'left', u'middle', u'right']","[0.9, 0.5, 0.1]","[u'low', u'medium', u'high']","black",50,"middle","medium","False","False",17,2850,NA
"ASC9DUCC64M3P","Thu Oct 01 2020 08:40:20 GMT-0700 (Pacific Daylight Time)","Thu Oct 01 2020 08:48:43 GMT-0700 (Pacific Daylight Time)","Mozilla/5.0 (Macintosh; Intel Mac OS X 10_14_6) AppleWebKit/537.36 (KHTML, like Gecko) Chrome/85.0.4183.121 Safari/537.36",55,"[0.9, 0.5, 0.1]","[0.8, 0.4, 0.2]","[u'red', u'black', u'blue']","[u'left', u'middle', u'right']","[0.9, 0.5, 0.1]","[u'low', u'medium', u'high']","blue",51,"right","high","True","False",453,2950,NA
"ASC9DUCC64M3P","Thu Oct 01 2020 08:40:20 GMT-0700 (Pacific Daylight Time)","Thu Oct 01 2020 08:48:43 GMT-0700 (Pacific Daylight Time)","Mozilla/5.0 (Macintosh; Intel Mac OS X 10_14_6) AppleWebKit/537.36 (KHTML, like Gecko) Chrome/85.0.4183.121 Safari/537.36",56,"[0.9, 0.5, 0.1]","[0.8, 0.4, 0.2]","[u'red', u'black', u'blue']","[u'left', u'middle', u'right']","[0.9, 0.5, 0.1]","[u'low', u'medium', u'high']","blue",51,"right","high","False","False",387,2900,NA
"ASC9DUCC64M3P","Thu Oct 01 2020 08:40:20 GMT-0700 (Pacific Daylight Time)","Thu Oct 01 2020 08:48:43 GMT-0700 (Pacific Daylight Time)","Mozilla/5.0 (Macintosh; Intel Mac OS X 10_14_6) AppleWebKit/537.36 (KHTML, like Gecko) Chrome/85.0.4183.121 Safari/537.36",57,"[0.9, 0.5, 0.1]","[0.8, 0.4, 0.2]","[u'red', u'black', u'blue']","[u'left', u'middle', u'right']","[0.9, 0.5, 0.1]","[u'low', u'medium', u'high']","black",50,"middle","medium","False","False",366,2850,NA
"ASC9DUCC64M3P","Thu Oct 01 2020 08:40:20 GMT-0700 (Pacific Daylight Time)","Thu Oct 01 2020 08:48:43 GMT-0700 (Pacific Daylight Time)","Mozilla/5.0 (Macintosh; Intel Mac OS X 10_14_6) AppleWebKit/537.36 (KHTML, like Gecko) Chrome/85.0.4183.121 Safari/537.36",58,"[0.9, 0.5, 0.1]","[0.8, 0.4, 0.2]","[u'red', u'black', u'blue']","[u'left', u'middle', u'right']","[0.9, 0.5, 0.1]","[u'low', u'medium', u'high']","red",49,"left","low","False","False",377,2800,NA
"ASC9DUCC64M3P","Thu Oct 01 2020 08:40:20 GMT-0700 (Pacific Daylight Time)","Thu Oct 01 2020 08:48:43 GMT-0700 (Pacific Daylight Time)","Mozilla/5.0 (Macintosh; Intel Mac OS X 10_14_6) AppleWebKit/537.36 (KHTML, like Gecko) Chrome/85.0.4183.121 Safari/537.36",59,"[0.9, 0.5, 0.1]","[0.8, 0.4, 0.2]","[u'red', u'black', u'blue']","[u'left', u'middle', u'right']","[0.9, 0.5, 0.1]","[u'low', u'medium', u'high']","blue",51,"right","high","True","False",612,2900,NA
"ASC9DUCC64M3P","Thu Oct 01 2020 08:40:20 GMT-0700 (Pacific Daylight Time)","Thu Oct 01 2020 08:48:43 GMT-0700 (Pacific Daylight Time)","Mozilla/5.0 (Macintosh; Intel Mac OS X 10_14_6) AppleWebKit/537.36 (KHTML, like Gecko) Chrome/85.0.4183.121 Safari/537.36",60,"[0.9, 0.5, 0.1]","[0.8, 0.4, 0.2]","[u'red', u'black', u'blue']","[u'left', u'middle', u'right']","[0.9, 0.5, 0.1]","[u'low', u'medium', u'high']","blue",51,"right","high","False","False",411,2850,NA
"ASC9DUCC64M3P","Thu Oct 01 2020 08:40:20 GMT-0700 (Pacific Daylight Time)","Thu Oct 01 2020 08:48:43 GMT-0700 (Pacific Daylight Time)","Mozilla/5.0 (Macintosh; Intel Mac OS X 10_14_6) AppleWebKit/537.36 (KHTML, like Gecko) Chrome/85.0.4183.121 Safari/537.36",61,"[0.9, 0.5, 0.1]","[0.8, 0.4, 0.2]","[u'red', u'black', u'blue']","[u'left', u'middle', u'right']","[0.9, 0.5, 0.1]","[u'low', u'medium', u'high']","blue",51,"right","high","False","False",401,2800,NA
"ASC9DUCC64M3P","Thu Oct 01 2020 08:40:20 GMT-0700 (Pacific Daylight Time)","Thu Oct 01 2020 08:48:43 GMT-0700 (Pacific Daylight Time)","Mozilla/5.0 (Macintosh; Intel Mac OS X 10_14_6) AppleWebKit/537.36 (KHTML, like Gecko) Chrome/85.0.4183.121 Safari/537.36",62,"[0.9, 0.5, 0.1]","[0.8, 0.4, 0.2]","[u'red', u'black', u'blue']","[u'left', u'middle', u'right']","[0.9, 0.5, 0.1]","[u'low', u'medium', u'high']","black",50,"middle","medium","False","False",29,2750,NA
"ASC9DUCC64M3P","Thu Oct 01 2020 08:40:20 GMT-0700 (Pacific Daylight Time)","Thu Oct 01 2020 08:48:43 GMT-0700 (Pacific Daylight Time)","Mozilla/5.0 (Macintosh; Intel Mac OS X 10_14_6) AppleWebKit/537.36 (KHTML, like Gecko) Chrome/85.0.4183.121 Safari/537.36",63,"[0.9, 0.5, 0.1]","[0.8, 0.4, 0.2]","[u'red', u'black', u'blue']","[u'left', u'middle', u'right']","[0.9, 0.5, 0.1]","[u'low', u'medium', u'high']","red",49,"left","low","False","False",646,2700,NA
"ASC9DUCC64M3P","Thu Oct 01 2020 08:40:20 GMT-0700 (Pacific Daylight Time)","Thu Oct 01 2020 08:48:43 GMT-0700 (Pacific Daylight Time)","Mozilla/5.0 (Macintosh; Intel Mac OS X 10_14_6) AppleWebKit/537.36 (KHTML, like Gecko) Chrome/85.0.4183.121 Safari/537.36",64,"[0.9, 0.5, 0.1]","[0.8, 0.4, 0.2]","[u'red', u'black', u'blue']","[u'left', u'middle', u'right']","[0.9, 0.5, 0.1]","[u'low', u'medium', u'high']","black",50,"middle","medium","False","False",771,2650,NA
"ASC9DUCC64M3P","Thu Oct 01 2020 08:40:20 GMT-0700 (Pacific Daylight Time)","Thu Oct 01 2020 08:48:43 GMT-0700 (Pacific Daylight Time)","Mozilla/5.0 (Macintosh; Intel Mac OS X 10_14_6) AppleWebKit/537.36 (KHTML, like Gecko) Chrome/85.0.4183.121 Safari/537.36",65,"[0.9, 0.5, 0.1]","[0.8, 0.4, 0.2]","[u'red', u'black', u'blue']","[u'left', u'middle', u'right']","[0.9, 0.5, 0.1]","[u'low', u'medium', u'high']","blue",51,"right","high","False","False",332,2600,NA
"ASC9DUCC64M3P","Thu Oct 01 2020 08:40:20 GMT-0700 (Pacific Daylight Time)","Thu Oct 01 2020 08:48:43 GMT-0700 (Pacific Daylight Time)","Mozilla/5.0 (Macintosh; Intel Mac OS X 10_14_6) AppleWebKit/537.36 (KHTML, like Gecko) Chrome/85.0.4183.121 Safari/537.36",66,"[0.9, 0.5, 0.1]","[0.8, 0.4, 0.2]","[u'red', u'black', u'blue']","[u'left', u'middle', u'right']","[0.9, 0.5, 0.1]","[u'low', u'medium', u'high']","red",49,"left","low","False","False",378,2550,NA
"ASC9DUCC64M3P","Thu Oct 01 2020 08:40:20 GMT-0700 (Pacific Daylight Time)","Thu Oct 01 2020 08:48:43 GMT-0700 (Pacific Daylight Time)","Mozilla/5.0 (Macintosh; Intel Mac OS X 10_14_6) AppleWebKit/537.36 (KHTML, like Gecko) Chrome/85.0.4183.121 Safari/537.36",67,"[0.9, 0.5, 0.1]","[0.8, 0.4, 0.2]","[u'red', u'black', u'blue']","[u'left', u'middle', u'right']","[0.9, 0.5, 0.1]","[u'low', u'medium', u'high']","blue",51,"right","high","True","False",589,2650,NA
"ASC9DUCC64M3P","Thu Oct 01 2020 08:40:20 GMT-0700 (Pacific Daylight Time)","Thu Oct 01 2020 08:48:43 GMT-0700 (Pacific Daylight Time)","Mozilla/5.0 (Macintosh; Intel Mac OS X 10_14_6) AppleWebKit/537.36 (KHTML, like Gecko) Chrome/85.0.4183.121 Safari/537.36",68,"[0.9, 0.5, 0.1]","[0.8, 0.4, 0.2]","[u'red', u'black', u'blue']","[u'left', u'middle', u'right']","[0.9, 0.5, 0.1]","[u'low', u'medium', u'high']","blue",51,"right","high","True","False",491,2750,NA
"ASC9DUCC64M3P","Thu Oct 01 2020 08:40:20 GMT-0700 (Pacific Daylight Time)","Thu Oct 01 2020 08:48:43 GMT-0700 (Pacific Daylight Time)","Mozilla/5.0 (Macintosh; Intel Mac OS X 10_14_6) AppleWebKit/537.36 (KHTML, like Gecko) Chrome/85.0.4183.121 Safari/537.36",69,"[0.9, 0.5, 0.1]","[0.8, 0.4, 0.2]","[u'red', u'black', u'blue']","[u'left', u'middle', u'right']","[0.9, 0.5, 0.1]","[u'low', u'medium', u'high']","blue",51,"right","high","True","False",490,2850,NA
"ASC9DUCC64M3P","Thu Oct 01 2020 08:40:20 GMT-0700 (Pacific Daylight Time)","Thu Oct 01 2020 08:48:43 GMT-0700 (Pacific Daylight Time)","Mozilla/5.0 (Macintosh; Intel Mac OS X 10_14_6) AppleWebKit/537.36 (KHTML, like Gecko) Chrome/85.0.4183.121 Safari/537.36",70,"[0.9, 0.5, 0.1]","[0.8, 0.4, 0.2]","[u'red', u'black', u'blue']","[u'left', u'middle', u'right']","[0.9, 0.5, 0.1]","[u'low', u'medium', u'high']","blue",51,"right","high","True","False",633,2950,NA
"ASC9DUCC64M3P","Thu Oct 01 2020 08:40:20 GMT-0700 (Pacific Daylight Time)","Thu Oct 01 2020 08:48:43 GMT-0700 (Pacific Daylight Time)","Mozilla/5.0 (Macintosh; Intel Mac OS X 10_14_6) AppleWebKit/537.36 (KHTML, like Gecko) Chrome/85.0.4183.121 Safari/537.36",71,"[0.9, 0.5, 0.1]","[0.8, 0.4, 0.2]","[u'red', u'black', u'blue']","[u'left', u'middle', u'right']","[0.9, 0.5, 0.1]","[u'low', u'medium', u'high']","blue",51,"right","high","True","False",624,3050,NA
"ASC9DUCC64M3P","Thu Oct 01 2020 08:40:20 GMT-0700 (Pacific Daylight Time)","Thu Oct 01 2020 08:48:43 GMT-0700 (Pacific Daylight Time)","Mozilla/5.0 (Macintosh; Intel Mac OS X 10_14_6) AppleWebKit/537.36 (KHTML, like Gecko) Chrome/85.0.4183.121 Safari/537.36",72,"[0.9, 0.5, 0.1]","[0.8, 0.4, 0.2]","[u'red', u'black', u'blue']","[u'left', u'middle', u'right']","[0.9, 0.5, 0.1]","[u'low', u'medium', u'high']","blue",51,"right","high","True","False",669,3150,NA
"ASC9DUCC64M3P","Thu Oct 01 2020 08:40:20 GMT-0700 (Pacific Daylight Time)","Thu Oct 01 2020 08:48:43 GMT-0700 (Pacific Daylight Time)","Mozilla/5.0 (Macintosh; Intel Mac OS X 10_14_6) AppleWebKit/537.36 (KHTML, like Gecko) Chrome/85.0.4183.121 Safari/537.36",73,"[0.9, 0.5, 0.1]","[0.8, 0.4, 0.2]","[u'red', u'black', u'blue']","[u'left', u'middle', u'right']","[0.9, 0.5, 0.1]","[u'low', u'medium', u'high']","blue",51,"right","high","True","False",523,3250,NA
"ASC9DUCC64M3P","Thu Oct 01 2020 08:40:20 GMT-0700 (Pacific Daylight Time)","Thu Oct 01 2020 08:48:43 GMT-0700 (Pacific Daylight Time)","Mozilla/5.0 (Macintosh; Intel Mac OS X 10_14_6) AppleWebKit/537.36 (KHTML, like Gecko) Chrome/85.0.4183.121 Safari/537.36",74,"[0.9, 0.5, 0.1]","[0.8, 0.4, 0.2]","[u'red', u'black', u'blue']","[u'left', u'middle', u'right']","[0.9, 0.5, 0.1]","[u'low', u'medium', u'high']","blue",51,"right","high","True","True",377,3350,NA
"ASC9DUCC64M3P","Thu Oct 01 2020 08:40:20 GMT-0700 (Pacific Daylight Time)","Thu Oct 01 2020 08:48:43 GMT-0700 (Pacific Daylight Time)","Mozilla/5.0 (Macintosh; Intel Mac OS X 10_14_6) AppleWebKit/537.36 (KHTML, like Gecko) Chrome/85.0.4183.121 Safari/537.36",75,"[0.9, 0.5, 0.1]","[0.8, 0.4, 0.2]","[u'red', u'black', u'blue']","[u'left', u'middle', u'right']","[0.9, 0.5, 0.1]","[u'high', u'medium', u'low']","blue",51,"right","low","False","False",467,3300,NA
"ASC9DUCC64M3P","Thu Oct 01 2020 08:40:20 GMT-0700 (Pacific Daylight Time)","Thu Oct 01 2020 08:48:43 GMT-0700 (Pacific Daylight Time)","Mozilla/5.0 (Macintosh; Intel Mac OS X 10_14_6) AppleWebKit/537.36 (KHTML, like Gecko) Chrome/85.0.4183.121 Safari/537.36",76,"[0.9, 0.5, 0.1]","[0.8, 0.4, 0.2]","[u'red', u'black', u'blue']","[u'left', u'middle', u'right']","[0.9, 0.5, 0.1]","[u'high', u'medium', u'low']","black",50,"middle","medium","True","False",511,3400,NA
"ASC9DUCC64M3P","Thu Oct 01 2020 08:40:20 GMT-0700 (Pacific Daylight Time)","Thu Oct 01 2020 08:48:43 GMT-0700 (Pacific Daylight Time)","Mozilla/5.0 (Macintosh; Intel Mac OS X 10_14_6) AppleWebKit/537.36 (KHTML, like Gecko) Chrome/85.0.4183.121 Safari/537.36",77,"[0.9, 0.5, 0.1]","[0.8, 0.4, 0.2]","[u'red', u'black', u'blue']","[u'left', u'middle', u'right']","[0.9, 0.5, 0.1]","[u'high', u'medium', u'low']","black",50,"middle","medium","True","False",126,3500,NA
"ASC9DUCC64M3P","Thu Oct 01 2020 08:40:20 GMT-0700 (Pacific Daylight Time)","Thu Oct 01 2020 08:48:43 GMT-0700 (Pacific Daylight Time)","Mozilla/5.0 (Macintosh; Intel Mac OS X 10_14_6) AppleWebKit/537.36 (KHTML, like Gecko) Chrome/85.0.4183.121 Safari/537.36",78,"[0.9, 0.5, 0.1]","[0.8, 0.4, 0.2]","[u'red', u'black', u'blue']","[u'left', u'middle', u'right']","[0.9, 0.5, 0.1]","[u'high', u'medium', u'low']","black",50,"middle","medium","True","False",356,3600,NA
"ASC9DUCC64M3P","Thu Oct 01 2020 08:40:20 GMT-0700 (Pacific Daylight Time)","Thu Oct 01 2020 08:48:43 GMT-0700 (Pacific Daylight Time)","Mozilla/5.0 (Macintosh; Intel Mac OS X 10_14_6) AppleWebKit/537.36 (KHTML, like Gecko) Chrome/85.0.4183.121 Safari/537.36",79,"[0.9, 0.5, 0.1]","[0.8, 0.4, 0.2]","[u'red', u'black', u'blue']","[u'left', u'middle', u'right']","[0.9, 0.5, 0.1]","[u'high', u'medium', u'low']","black",50,"middle","medium","False","False",566,3550,NA
"ASC9DUCC64M3P","Thu Oct 01 2020 08:40:20 GMT-0700 (Pacific Daylight Time)","Thu Oct 01 2020 08:48:43 GMT-0700 (Pacific Daylight Time)","Mozilla/5.0 (Macintosh; Intel Mac OS X 10_14_6) AppleWebKit/537.36 (KHTML, like Gecko) Chrome/85.0.4183.121 Safari/537.36",80,"[0.9, 0.5, 0.1]","[0.8, 0.4, 0.2]","[u'red', u'black', u'blue']","[u'left', u'middle', u'right']","[0.9, 0.5, 0.1]","[u'high', u'medium', u'low']","red",49,"left","high","True","False",388,3650,NA
"ASC9DUCC64M3P","Thu Oct 01 2020 08:40:20 GMT-0700 (Pacific Daylight Time)","Thu Oct 01 2020 08:48:43 GMT-0700 (Pacific Daylight Time)","Mozilla/5.0 (Macintosh; Intel Mac OS X 10_14_6) AppleWebKit/537.36 (KHTML, like Gecko) Chrome/85.0.4183.121 Safari/537.36",81,"[0.9, 0.5, 0.1]","[0.8, 0.4, 0.2]","[u'red', u'black', u'blue']","[u'left', u'middle', u'right']","[0.8, 0.4, 0.2]","[u'medium', u'low', u'high']","red",49,"left","medium","True","False",834,3750,NA
"ASC9DUCC64M3P","Thu Oct 01 2020 08:40:20 GMT-0700 (Pacific Daylight Time)","Thu Oct 01 2020 08:48:43 GMT-0700 (Pacific Daylight Time)","Mozilla/5.0 (Macintosh; Intel Mac OS X 10_14_6) AppleWebKit/537.36 (KHTML, like Gecko) Chrome/85.0.4183.121 Safari/537.36",82,"[0.9, 0.5, 0.1]","[0.8, 0.4, 0.2]","[u'red', u'black', u'blue']","[u'left', u'middle', u'right']","[0.8, 0.4, 0.2]","[u'medium', u'low', u'high']","red",49,"left","medium","True","False",814,3850,NA
"ASC9DUCC64M3P","Thu Oct 01 2020 08:40:20 GMT-0700 (Pacific Daylight Time)","Thu Oct 01 2020 08:48:43 GMT-0700 (Pacific Daylight Time)","Mozilla/5.0 (Macintosh; Intel Mac OS X 10_14_6) AppleWebKit/537.36 (KHTML, like Gecko) Chrome/85.0.4183.121 Safari/537.36",83,"[0.9, 0.5, 0.1]","[0.8, 0.4, 0.2]","[u'red', u'black', u'blue']","[u'left', u'middle', u'right']","[0.8, 0.4, 0.2]","[u'medium', u'low', u'high']","red",49,"left","medium","True","False",445,3950,NA
"ASC9DUCC64M3P","Thu Oct 01 2020 08:40:20 GMT-0700 (Pacific Daylight Time)","Thu Oct 01 2020 08:48:43 GMT-0700 (Pacific Daylight Time)","Mozilla/5.0 (Macintosh; Intel Mac OS X 10_14_6) AppleWebKit/537.36 (KHTML, like Gecko) Chrome/85.0.4183.121 Safari/537.36",84,"[0.9, 0.5, 0.1]","[0.8, 0.4, 0.2]","[u'red', u'black', u'blue']","[u'left', u'middle', u'right']","[0.8, 0.4, 0.2]","[u'medium', u'low', u'high']","red",49,"left","medium","True","False",457,4050,NA
"ASC9DUCC64M3P","Thu Oct 01 2020 08:40:20 GMT-0700 (Pacific Daylight Time)","Thu Oct 01 2020 08:48:43 GMT-0700 (Pacific Daylight Time)","Mozilla/5.0 (Macintosh; Intel Mac OS X 10_14_6) AppleWebKit/537.36 (KHTML, like Gecko) Chrome/85.0.4183.121 Safari/537.36",85,"[0.9, 0.5, 0.1]","[0.8, 0.4, 0.2]","[u'red', u'black', u'blue']","[u'left', u'middle', u'right']","[0.8, 0.4, 0.2]","[u'medium', u'low', u'high']","red",49,"left","medium","False","False",590,4000,NA
"ASC9DUCC64M3P","Thu Oct 01 2020 08:40:20 GMT-0700 (Pacific Daylight Time)","Thu Oct 01 2020 08:48:43 GMT-0700 (Pacific Daylight Time)","Mozilla/5.0 (Macintosh; Intel Mac OS X 10_14_6) AppleWebKit/537.36 (KHTML, like Gecko) Chrome/85.0.4183.121 Safari/537.36",86,"[0.9, 0.5, 0.1]","[0.8, 0.4, 0.2]","[u'red', u'black', u'blue']","[u'left', u'middle', u'right']","[0.8, 0.4, 0.2]","[u'medium', u'low', u'high']","blue",51,"right","high","True","False",367,4100,NA
"ASC9DUCC64M3P","Thu Oct 01 2020 08:40:20 GMT-0700 (Pacific Daylight Time)","Thu Oct 01 2020 08:48:43 GMT-0700 (Pacific Daylight Time)","Mozilla/5.0 (Macintosh; Intel Mac OS X 10_14_6) AppleWebKit/537.36 (KHTML, like Gecko) Chrome/85.0.4183.121 Safari/537.36",87,"[0.9, 0.5, 0.1]","[0.8, 0.4, 0.2]","[u'red', u'black', u'blue']","[u'left', u'middle', u'right']","[0.8, 0.4, 0.2]","[u'medium', u'low', u'high']","blue",51,"right","high","False","False",388,4050,NA
"ASC9DUCC64M3P","Thu Oct 01 2020 08:40:20 GMT-0700 (Pacific Daylight Time)","Thu Oct 01 2020 08:48:43 GMT-0700 (Pacific Daylight Time)","Mozilla/5.0 (Macintosh; Intel Mac OS X 10_14_6) AppleWebKit/537.36 (KHTML, like Gecko) Chrome/85.0.4183.121 Safari/537.36",88,"[0.9, 0.5, 0.1]","[0.8, 0.4, 0.2]","[u'red', u'black', u'blue']","[u'left', u'middle', u'right']","[0.8, 0.4, 0.2]","[u'medium', u'low', u'high']","black",50,"middle","low","False","False",374,4000,NA
"ASC9DUCC64M3P","Thu Oct 01 2020 08:40:20 GMT-0700 (Pacific Daylight Time)","Thu Oct 01 2020 08:48:43 GMT-0700 (Pacific Daylight Time)","Mozilla/5.0 (Macintosh; Intel Mac OS X 10_14_6) AppleWebKit/537.36 (KHTML, like Gecko) Chrome/85.0.4183.121 Safari/537.36",89,"[0.9, 0.5, 0.1]","[0.8, 0.4, 0.2]","[u'red', u'black', u'blue']","[u'left', u'middle', u'right']","[0.8, 0.4, 0.2]","[u'medium', u'low', u'high']","blue",51,"right","high","True","False",456,4100,NA
"ASC9DUCC64M3P","Thu Oct 01 2020 08:40:20 GMT-0700 (Pacific Daylight Time)","Thu Oct 01 2020 08:48:43 GMT-0700 (Pacific Daylight Time)","Mozilla/5.0 (Macintosh; Intel Mac OS X 10_14_6) AppleWebKit/537.36 (KHTML, like Gecko) Chrome/85.0.4183.121 Safari/537.36",90,"[0.9, 0.5, 0.1]","[0.8, 0.4, 0.2]","[u'red', u'black', u'blue']","[u'left', u'middle', u'right']","[0.8, 0.4, 0.2]","[u'medium', u'low', u'high']","blue",51,"right","high","True","False",398,4200,NA
"ASC9DUCC64M3P","Thu Oct 01 2020 08:40:20 GMT-0700 (Pacific Daylight Time)","Thu Oct 01 2020 08:48:43 GMT-0700 (Pacific Daylight Time)","Mozilla/5.0 (Macintosh; Intel Mac OS X 10_14_6) AppleWebKit/537.36 (KHTML, like Gecko) Chrome/85.0.4183.121 Safari/537.36",91,"[0.9, 0.5, 0.1]","[0.8, 0.4, 0.2]","[u'red', u'black', u'blue']","[u'left', u'middle', u'right']","[0.8, 0.4, 0.2]","[u'medium', u'low', u'high']","blue",51,"right","high","True","False",411,4300,NA
"ASC9DUCC64M3P","Thu Oct 01 2020 08:40:20 GMT-0700 (Pacific Daylight Time)","Thu Oct 01 2020 08:48:43 GMT-0700 (Pacific Daylight Time)","Mozilla/5.0 (Macintosh; Intel Mac OS X 10_14_6) AppleWebKit/537.36 (KHTML, like Gecko) Chrome/85.0.4183.121 Safari/537.36",92,"[0.9, 0.5, 0.1]","[0.8, 0.4, 0.2]","[u'red', u'black', u'blue']","[u'left', u'middle', u'right']","[0.8, 0.4, 0.2]","[u'medium', u'low', u'high']","blue",51,"right","high","True","False",434,4400,NA
"ASC9DUCC64M3P","Thu Oct 01 2020 08:40:20 GMT-0700 (Pacific Daylight Time)","Thu Oct 01 2020 08:48:43 GMT-0700 (Pacific Daylight Time)","Mozilla/5.0 (Macintosh; Intel Mac OS X 10_14_6) AppleWebKit/537.36 (KHTML, like Gecko) Chrome/85.0.4183.121 Safari/537.36",93,"[0.9, 0.5, 0.1]","[0.8, 0.4, 0.2]","[u'red', u'black', u'blue']","[u'left', u'middle', u'right']","[0.8, 0.4, 0.2]","[u'medium', u'low', u'high']","blue",51,"right","high","True","False",545,4500,NA
"ASC9DUCC64M3P","Thu Oct 01 2020 08:40:20 GMT-0700 (Pacific Daylight Time)","Thu Oct 01 2020 08:48:43 GMT-0700 (Pacific Daylight Time)","Mozilla/5.0 (Macintosh; Intel Mac OS X 10_14_6) AppleWebKit/537.36 (KHTML, like Gecko) Chrome/85.0.4183.121 Safari/537.36",94,"[0.9, 0.5, 0.1]","[0.8, 0.4, 0.2]","[u'red', u'black', u'blue']","[u'left', u'middle', u'right']","[0.8, 0.4, 0.2]","[u'medium', u'low', u'high']","blue",51,"right","high","False","False",466,4450,NA
"ASC9DUCC64M3P","Thu Oct 01 2020 08:40:20 GMT-0700 (Pacific Daylight Time)","Thu Oct 01 2020 08:48:43 GMT-0700 (Pacific Daylight Time)","Mozilla/5.0 (Macintosh; Intel Mac OS X 10_14_6) AppleWebKit/537.36 (KHTML, like Gecko) Chrome/85.0.4183.121 Safari/537.36",95,"[0.9, 0.5, 0.1]","[0.8, 0.4, 0.2]","[u'red', u'black', u'blue']","[u'left', u'middle', u'right']","[0.8, 0.4, 0.2]","[u'medium', u'low', u'high']","black",50,"middle","low","True","False",321,4550,NA
"ASC9DUCC64M3P","Thu Oct 01 2020 08:40:20 GMT-0700 (Pacific Daylight Time)","Thu Oct 01 2020 08:48:43 GMT-0700 (Pacific Daylight Time)","Mozilla/5.0 (Macintosh; Intel Mac OS X 10_14_6) AppleWebKit/537.36 (KHTML, like Gecko) Chrome/85.0.4183.121 Safari/537.36",96,"[0.9, 0.5, 0.1]","[0.8, 0.4, 0.2]","[u'red', u'black', u'blue']","[u'left', u'middle', u'right']","[0.8, 0.4, 0.2]","[u'medium', u'low', u'high']","black",50,"middle","low","False","False",589,4500,NA
"ASC9DUCC64M3P","Thu Oct 01 2020 08:40:20 GMT-0700 (Pacific Daylight Time)","Thu Oct 01 2020 08:48:43 GMT-0700 (Pacific Daylight Time)","Mozilla/5.0 (Macintosh; Intel Mac OS X 10_14_6) AppleWebKit/537.36 (KHTML, like Gecko) Chrome/85.0.4183.121 Safari/537.36",97,"[0.9, 0.5, 0.1]","[0.8, 0.4, 0.2]","[u'red', u'black', u'blue']","[u'left', u'middle', u'right']","[0.8, 0.4, 0.2]","[u'medium', u'low', u'high']","red",49,"left","medium","False","False",535,4450,NA
"ASC9DUCC64M3P","Thu Oct 01 2020 08:40:20 GMT-0700 (Pacific Daylight Time)","Thu Oct 01 2020 08:48:43 GMT-0700 (Pacific Daylight Time)","Mozilla/5.0 (Macintosh; Intel Mac OS X 10_14_6) AppleWebKit/537.36 (KHTML, like Gecko) Chrome/85.0.4183.121 Safari/537.36",98,"[0.9, 0.5, 0.1]","[0.8, 0.4, 0.2]","[u'red', u'black', u'blue']","[u'left', u'middle', u'right']","[0.8, 0.4, 0.2]","[u'medium', u'low', u'high']","black",50,"middle","low","False","False",737,4400,NA
"ASC9DUCC64M3P","Thu Oct 01 2020 08:40:20 GMT-0700 (Pacific Daylight Time)","Thu Oct 01 2020 08:48:43 GMT-0700 (Pacific Daylight Time)","Mozilla/5.0 (Macintosh; Intel Mac OS X 10_14_6) AppleWebKit/537.36 (KHTML, like Gecko) Chrome/85.0.4183.121 Safari/537.36",99,"[0.9, 0.5, 0.1]","[0.8, 0.4, 0.2]","[u'red', u'black', u'blue']","[u'left', u'middle', u'right']","[0.8, 0.4, 0.2]","[u'medium', u'low', u'high']","blue",51,"right","high","True","False",409,4500,NA
"ASC9DUCC64M3P","Thu Oct 01 2020 08:40:20 GMT-0700 (Pacific Daylight Time)","Thu Oct 01 2020 08:48:43 GMT-0700 (Pacific Daylight Time)","Mozilla/5.0 (Macintosh; Intel Mac OS X 10_14_6) AppleWebKit/537.36 (KHTML, like Gecko) Chrome/85.0.4183.121 Safari/537.36",100,"[0.9, 0.5, 0.1]","[0.8, 0.4, 0.2]","[u'red', u'black', u'blue']","[u'left', u'middle', u'right']","[0.8, 0.4, 0.2]","[u'medium', u'low', u'high']","blue",51,"right","high","True","False",667,4600,NA
"ASC9DUCC64M3P","Thu Oct 01 2020 08:40:20 GMT-0700 (Pacific Daylight Time)","Thu Oct 01 2020 08:48:43 GMT-0700 (Pacific Daylight Time)","Mozilla/5.0 (Macintosh; Intel Mac OS X 10_14_6) AppleWebKit/537.36 (KHTML, like Gecko) Chrome/85.0.4183.121 Safari/537.36",101,"[0.9, 0.5, 0.1]","[0.8, 0.4, 0.2]","[u'red', u'black', u'blue']","[u'left', u'middle', u'right']","[0.8, 0.4, 0.2]","[u'medium', u'low', u'high']","blue",51,"right","high","False","False",499,4550,NA
"ASC9DUCC64M3P","Thu Oct 01 2020 08:40:20 GMT-0700 (Pacific Daylight Time)","Thu Oct 01 2020 08:48:43 GMT-0700 (Pacific Daylight Time)","Mozilla/5.0 (Macintosh; Intel Mac OS X 10_14_6) AppleWebKit/537.36 (KHTML, like Gecko) Chrome/85.0.4183.121 Safari/537.36",102,"[0.9, 0.5, 0.1]","[0.8, 0.4, 0.2]","[u'red', u'black', u'blue']","[u'left', u'middle', u'right']","[0.8, 0.4, 0.2]","[u'medium', u'low', u'high']","black",50,"middle","low","False","False",153,4500,NA
"ASC9DUCC64M3P","Thu Oct 01 2020 08:40:20 GMT-0700 (Pacific Daylight Time)","Thu Oct 01 2020 08:48:43 GMT-0700 (Pacific Daylight Time)","Mozilla/5.0 (Macintosh; Intel Mac OS X 10_14_6) AppleWebKit/537.36 (KHTML, like Gecko) Chrome/85.0.4183.121 Safari/537.36",103,"[0.9, 0.5, 0.1]","[0.8, 0.4, 0.2]","[u'red', u'black', u'blue']","[u'left', u'middle', u'right']","[0.8, 0.4, 0.2]","[u'medium', u'low', u'high']","red",49,"left","medium","False","False",342,4450,NA
"ASC9DUCC64M3P","Thu Oct 01 2020 08:40:20 GMT-0700 (Pacific Daylight Time)","Thu Oct 01 2020 08:48:43 GMT-0700 (Pacific Daylight Time)","Mozilla/5.0 (Macintosh; Intel Mac OS X 10_14_6) AppleWebKit/537.36 (KHTML, like Gecko) Chrome/85.0.4183.121 Safari/537.36",104,"[0.9, 0.5, 0.1]","[0.8, 0.4, 0.2]","[u'red', u'black', u'blue']","[u'left', u'middle', u'right']","[0.8, 0.4, 0.2]","[u'medium', u'low', u'high']","blue",51,"right","high","True","False",422,4550,NA
"ASC9DUCC64M3P","Thu Oct 01 2020 08:40:20 GMT-0700 (Pacific Daylight Time)","Thu Oct 01 2020 08:48:43 GMT-0700 (Pacific Daylight Time)","Mozilla/5.0 (Macintosh; Intel Mac OS X 10_14_6) AppleWebKit/537.36 (KHTML, like Gecko) Chrome/85.0.4183.121 Safari/537.36",105,"[0.9, 0.5, 0.1]","[0.8, 0.4, 0.2]","[u'red', u'black', u'blue']","[u'left', u'middle', u'right']","[0.8, 0.4, 0.2]","[u'medium', u'low', u'high']","blue",51,"right","high","True","False",378,4650,NA
"ASC9DUCC64M3P","Thu Oct 01 2020 08:40:20 GMT-0700 (Pacific Daylight Time)","Thu Oct 01 2020 08:48:43 GMT-0700 (Pacific Daylight Time)","Mozilla/5.0 (Macintosh; Intel Mac OS X 10_14_6) AppleWebKit/537.36 (KHTML, like Gecko) Chrome/85.0.4183.121 Safari/537.36",106,"[0.9, 0.5, 0.1]","[0.8, 0.4, 0.2]","[u'red', u'black', u'blue']","[u'left', u'middle', u'right']","[0.8, 0.4, 0.2]","[u'medium', u'low', u'high']","blue",51,"right","high","False","False",387,4600,NA
"ASC9DUCC64M3P","Thu Oct 01 2020 08:40:20 GMT-0700 (Pacific Daylight Time)","Thu Oct 01 2020 08:48:43 GMT-0700 (Pacific Daylight Time)","Mozilla/5.0 (Macintosh; Intel Mac OS X 10_14_6) AppleWebKit/537.36 (KHTML, like Gecko) Chrome/85.0.4183.121 Safari/537.36",107,"[0.9, 0.5, 0.1]","[0.8, 0.4, 0.2]","[u'red', u'black', u'blue']","[u'left', u'middle', u'right']","[0.8, 0.4, 0.2]","[u'medium', u'low', u'high']","blue",51,"right","high","True","False",6,4700,NA
"ASC9DUCC64M3P","Thu Oct 01 2020 08:40:20 GMT-0700 (Pacific Daylight Time)","Thu Oct 01 2020 08:48:43 GMT-0700 (Pacific Daylight Time)","Mozilla/5.0 (Macintosh; Intel Mac OS X 10_14_6) AppleWebKit/537.36 (KHTML, like Gecko) Chrome/85.0.4183.121 Safari/537.36",108,"[0.9, 0.5, 0.1]","[0.8, 0.4, 0.2]","[u'red', u'black', u'blue']","[u'left', u'middle', u'right']","[0.8, 0.4, 0.2]","[u'medium', u'low', u'high']","blue",51,"right","high","True","False",433,4800,NA
"ASC9DUCC64M3P","Thu Oct 01 2020 08:40:20 GMT-0700 (Pacific Daylight Time)","Thu Oct 01 2020 08:48:43 GMT-0700 (Pacific Daylight Time)","Mozilla/5.0 (Macintosh; Intel Mac OS X 10_14_6) AppleWebKit/537.36 (KHTML, like Gecko) Chrome/85.0.4183.121 Safari/537.36",109,"[0.9, 0.5, 0.1]","[0.8, 0.4, 0.2]","[u'red', u'black', u'blue']","[u'left', u'middle', u'right']","[0.8, 0.4, 0.2]","[u'medium', u'low', u'high']","blue",51,"right","high","True","False",400,4900,NA
"ASC9DUCC64M3P","Thu Oct 01 2020 08:40:20 GMT-0700 (Pacific Daylight Time)","Thu Oct 01 2020 08:48:43 GMT-0700 (Pacific Daylight Time)","Mozilla/5.0 (Macintosh; Intel Mac OS X 10_14_6) AppleWebKit/537.36 (KHTML, like Gecko) Chrome/85.0.4183.121 Safari/537.36",110,"[0.9, 0.5, 0.1]","[0.8, 0.4, 0.2]","[u'red', u'black', u'blue']","[u'left', u'middle', u'right']","[0.8, 0.4, 0.2]","[u'medium', u'low', u'high']","blue",51,"right","high","True","False",602,5000,NA
"ASC9DUCC64M3P","Thu Oct 01 2020 08:40:20 GMT-0700 (Pacific Daylight Time)","Thu Oct 01 2020 08:48:43 GMT-0700 (Pacific Daylight Time)","Mozilla/5.0 (Macintosh; Intel Mac OS X 10_14_6) AppleWebKit/537.36 (KHTML, like Gecko) Chrome/85.0.4183.121 Safari/537.36",111,"[0.9, 0.5, 0.1]","[0.8, 0.4, 0.2]","[u'red', u'black', u'blue']","[u'left', u'middle', u'right']","[0.8, 0.4, 0.2]","[u'medium', u'low', u'high']","blue",51,"right","high","False","False",491,4950,NA
"ASC9DUCC64M3P","Thu Oct 01 2020 08:40:20 GMT-0700 (Pacific Daylight Time)","Thu Oct 01 2020 08:48:43 GMT-0700 (Pacific Daylight Time)","Mozilla/5.0 (Macintosh; Intel Mac OS X 10_14_6) AppleWebKit/537.36 (KHTML, like Gecko) Chrome/85.0.4183.121 Safari/537.36",112,"[0.9, 0.5, 0.1]","[0.8, 0.4, 0.2]","[u'red', u'black', u'blue']","[u'left', u'middle', u'right']","[0.8, 0.4, 0.2]","[u'medium', u'low', u'high']","blue",51,"right","high","True","True",321,5050,NA
"ASC9DUCC64M3P","Thu Oct 01 2020 08:40:20 GMT-0700 (Pacific Daylight Time)","Thu Oct 01 2020 08:48:43 GMT-0700 (Pacific Daylight Time)","Mozilla/5.0 (Macintosh; Intel Mac OS X 10_14_6) AppleWebKit/537.36 (KHTML, like Gecko) Chrome/85.0.4183.121 Safari/537.36",113,"[0.9, 0.5, 0.1]","[0.8, 0.4, 0.2]","[u'red', u'black', u'blue']","[u'left', u'middle', u'right']","[0.8, 0.4, 0.2]","[u'high', u'low', u'medium']","blue",51,"right","medium","False","False",408,5000,NA
"ASC9DUCC64M3P","Thu Oct 01 2020 08:40:20 GMT-0700 (Pacific Daylight Time)","Thu Oct 01 2020 08:48:43 GMT-0700 (Pacific Daylight Time)","Mozilla/5.0 (Macintosh; Intel Mac OS X 10_14_6) AppleWebKit/537.36 (KHTML, like Gecko) Chrome/85.0.4183.121 Safari/537.36",114,"[0.9, 0.5, 0.1]","[0.8, 0.4, 0.2]","[u'red', u'black', u'blue']","[u'left', u'middle', u'right']","[0.8, 0.4, 0.2]","[u'high', u'low', u'medium']","black",50,"middle","low","False","False",63,4950,NA
"ASC9DUCC64M3P","Thu Oct 01 2020 08:40:20 GMT-0700 (Pacific Daylight Time)","Thu Oct 01 2020 08:48:43 GMT-0700 (Pacific Daylight Time)","Mozilla/5.0 (Macintosh; Intel Mac OS X 10_14_6) AppleWebKit/537.36 (KHTML, like Gecko) Chrome/85.0.4183.121 Safari/537.36",115,"[0.9, 0.5, 0.1]","[0.8, 0.4, 0.2]","[u'red', u'black', u'blue']","[u'left', u'middle', u'right']","[0.8, 0.4, 0.2]","[u'high', u'low', u'medium']","red",49,"left","high","True","False",411,5050,NA
"ASC9DUCC64M3P","Thu Oct 01 2020 08:40:20 GMT-0700 (Pacific Daylight Time)","Thu Oct 01 2020 08:48:43 GMT-0700 (Pacific Daylight Time)","Mozilla/5.0 (Macintosh; Intel Mac OS X 10_14_6) AppleWebKit/537.36 (KHTML, like Gecko) Chrome/85.0.4183.121 Safari/537.36",116,"[0.9, 0.5, 0.1]","[0.8, 0.4, 0.2]","[u'red', u'black', u'blue']","[u'left', u'middle', u'right']","[0.8, 0.4, 0.2]","[u'high', u'low', u'medium']","red",49,"left","high","True","False",422,5150,NA
"ASC9DUCC64M3P","Thu Oct 01 2020 08:40:20 GMT-0700 (Pacific Daylight Time)","Thu Oct 01 2020 08:48:43 GMT-0700 (Pacific Daylight Time)","Mozilla/5.0 (Macintosh; Intel Mac OS X 10_14_6) AppleWebKit/537.36 (KHTML, like Gecko) Chrome/85.0.4183.121 Safari/537.36",117,"[0.9, 0.5, 0.1]","[0.8, 0.4, 0.2]","[u'red', u'black', u'blue']","[u'left', u'middle', u'right']","[0.8, 0.4, 0.2]","[u'high', u'low', u'medium']","red",49,"left","high","True","False",344,5250,NA
"ASC9DUCC64M3P","Thu Oct 01 2020 08:40:20 GMT-0700 (Pacific Daylight Time)","Thu Oct 01 2020 08:48:43 GMT-0700 (Pacific Daylight Time)","Mozilla/5.0 (Macintosh; Intel Mac OS X 10_14_6) AppleWebKit/537.36 (KHTML, like Gecko) Chrome/85.0.4183.121 Safari/537.36",118,"[0.9, 0.5, 0.1]","[0.8, 0.4, 0.2]","[u'red', u'black', u'blue']","[u'left', u'middle', u'right']","[0.8, 0.4, 0.2]","[u'high', u'low', u'medium']","red",49,"left","high","True","False",467,5350,NA
"ASC9DUCC64M3P","Thu Oct 01 2020 08:40:20 GMT-0700 (Pacific Daylight Time)","Thu Oct 01 2020 08:48:43 GMT-0700 (Pacific Daylight Time)","Mozilla/5.0 (Macintosh; Intel Mac OS X 10_14_6) AppleWebKit/537.36 (KHTML, like Gecko) Chrome/85.0.4183.121 Safari/537.36",119,"[0.9, 0.5, 0.1]","[0.8, 0.4, 0.2]","[u'red', u'black', u'blue']","[u'left', u'middle', u'right']","[0.8, 0.4, 0.2]","[u'high', u'low', u'medium']","red",49,"left","high","True","False",457,5450,NA
"ASC9DUCC64M3P","Thu Oct 01 2020 08:40:20 GMT-0700 (Pacific Daylight Time)","Thu Oct 01 2020 08:48:43 GMT-0700 (Pacific Daylight Time)","Mozilla/5.0 (Macintosh; Intel Mac OS X 10_14_6) AppleWebKit/537.36 (KHTML, like Gecko) Chrome/85.0.4183.121 Safari/537.36",120,"[0.9, 0.5, 0.1]","[0.8, 0.4, 0.2]","[u'red', u'black', u'blue']","[u'left', u'middle', u'right']","[0.8, 0.4, 0.2]","[u'high', u'low', u'medium']","red",49,"left","high","False","False",533,5400,NA
"ASC9DUCC64M3P","Thu Oct 01 2020 08:40:20 GMT-0700 (Pacific Daylight Time)","Thu Oct 01 2020 08:48:43 GMT-0700 (Pacific Daylight Time)","Mozilla/5.0 (Macintosh; Intel Mac OS X 10_14_6) AppleWebKit/537.36 (KHTML, like Gecko) Chrome/85.0.4183.121 Safari/537.36",121,"[0.9, 0.5, 0.1]","[0.8, 0.4, 0.2]","[u'red', u'black', u'blue']","[u'left', u'middle', u'right']","[0.8, 0.4, 0.2]","[u'low', u'high', u'medium']","red",49,"left","low","False","False",385,5350,NA
"ASC9DUCC64M3P","Thu Oct 01 2020 08:40:20 GMT-0700 (Pacific Daylight Time)","Thu Oct 01 2020 08:48:43 GMT-0700 (Pacific Daylight Time)","Mozilla/5.0 (Macintosh; Intel Mac OS X 10_14_6) AppleWebKit/537.36 (KHTML, like Gecko) Chrome/85.0.4183.121 Safari/537.36",122,"[0.9, 0.5, 0.1]","[0.8, 0.4, 0.2]","[u'red', u'black', u'blue']","[u'left', u'middle', u'right']","[0.8, 0.4, 0.2]","[u'low', u'high', u'medium']","blue",51,"right","medium","False","False",376,5300,NA
"ASC9DUCC64M3P","Thu Oct 01 2020 08:40:20 GMT-0700 (Pacific Daylight Time)","Thu Oct 01 2020 08:48:43 GMT-0700 (Pacific Daylight Time)","Mozilla/5.0 (Macintosh; Intel Mac OS X 10_14_6) AppleWebKit/537.36 (KHTML, like Gecko) Chrome/85.0.4183.121 Safari/537.36",123,"[0.9, 0.5, 0.1]","[0.8, 0.4, 0.2]","[u'red', u'black', u'blue']","[u'left', u'middle', u'right']","[0.8, 0.4, 0.2]","[u'low', u'high', u'medium']","blue",51,"right","medium","True","False",386,5400,NA
"ASC9DUCC64M3P","Thu Oct 01 2020 08:40:20 GMT-0700 (Pacific Daylight Time)","Thu Oct 01 2020 08:48:43 GMT-0700 (Pacific Daylight Time)","Mozilla/5.0 (Macintosh; Intel Mac OS X 10_14_6) AppleWebKit/537.36 (KHTML, like Gecko) Chrome/85.0.4183.121 Safari/537.36",124,"[0.9, 0.5, 0.1]","[0.8, 0.4, 0.2]","[u'red', u'black', u'blue']","[u'left', u'middle', u'right']","[0.8, 0.4, 0.2]","[u'low', u'high', u'medium']","blue",51,"right","medium","False","False",355,5350,NA
"ASC9DUCC64M3P","Thu Oct 01 2020 08:40:20 GMT-0700 (Pacific Daylight Time)","Thu Oct 01 2020 08:48:43 GMT-0700 (Pacific Daylight Time)","Mozilla/5.0 (Macintosh; Intel Mac OS X 10_14_6) AppleWebKit/537.36 (KHTML, like Gecko) Chrome/85.0.4183.121 Safari/537.36",125,"[0.9, 0.5, 0.1]","[0.8, 0.4, 0.2]","[u'red', u'black', u'blue']","[u'left', u'middle', u'right']","[0.8, 0.4, 0.2]","[u'low', u'high', u'medium']","black",50,"middle","high","False","False",390,5300,NA
"ASC9DUCC64M3P","Thu Oct 01 2020 08:40:20 GMT-0700 (Pacific Daylight Time)","Thu Oct 01 2020 08:48:43 GMT-0700 (Pacific Daylight Time)","Mozilla/5.0 (Macintosh; Intel Mac OS X 10_14_6) AppleWebKit/537.36 (KHTML, like Gecko) Chrome/85.0.4183.121 Safari/537.36",126,"[0.9, 0.5, 0.1]","[0.8, 0.4, 0.2]","[u'red', u'black', u'blue']","[u'left', u'middle', u'right']","[0.8, 0.4, 0.2]","[u'low', u'high', u'medium']","red",49,"left","low","False","False",331,5250,NA
"ASC9DUCC64M3P","Thu Oct 01 2020 08:40:20 GMT-0700 (Pacific Daylight Time)","Thu Oct 01 2020 08:48:43 GMT-0700 (Pacific Daylight Time)","Mozilla/5.0 (Macintosh; Intel Mac OS X 10_14_6) AppleWebKit/537.36 (KHTML, like Gecko) Chrome/85.0.4183.121 Safari/537.36",127,"[0.9, 0.5, 0.1]","[0.8, 0.4, 0.2]","[u'red', u'black', u'blue']","[u'left', u'middle', u'right']","[0.8, 0.4, 0.2]","[u'low', u'high', u'medium']","blue",51,"right","medium","True","False",298,5350,NA
"ASC9DUCC64M3P","Thu Oct 01 2020 08:40:20 GMT-0700 (Pacific Daylight Time)","Thu Oct 01 2020 08:48:43 GMT-0700 (Pacific Daylight Time)","Mozilla/5.0 (Macintosh; Intel Mac OS X 10_14_6) AppleWebKit/537.36 (KHTML, like Gecko) Chrome/85.0.4183.121 Safari/537.36",128,"[0.9, 0.5, 0.1]","[0.8, 0.4, 0.2]","[u'red', u'black', u'blue']","[u'left', u'middle', u'right']","[0.8, 0.4, 0.2]","[u'low', u'high', u'medium']","blue",51,"right","medium","False","False",354,5300,NA
"ASC9DUCC64M3P","Thu Oct 01 2020 08:40:20 GMT-0700 (Pacific Daylight Time)","Thu Oct 01 2020 08:48:43 GMT-0700 (Pacific Daylight Time)","Mozilla/5.0 (Macintosh; Intel Mac OS X 10_14_6) AppleWebKit/537.36 (KHTML, like Gecko) Chrome/85.0.4183.121 Safari/537.36",129,"[0.9, 0.5, 0.1]","[0.8, 0.4, 0.2]","[u'red', u'black', u'blue']","[u'left', u'middle', u'right']","[0.8, 0.4, 0.2]","[u'low', u'high', u'medium']","blue",51,"right","medium","False","False",220,5250,NA
"ASC9DUCC64M3P","Thu Oct 01 2020 08:40:20 GMT-0700 (Pacific Daylight Time)","Thu Oct 01 2020 08:48:43 GMT-0700 (Pacific Daylight Time)","Mozilla/5.0 (Macintosh; Intel Mac OS X 10_14_6) AppleWebKit/537.36 (KHTML, like Gecko) Chrome/85.0.4183.121 Safari/537.36",130,"[0.9, 0.5, 0.1]","[0.8, 0.4, 0.2]","[u'red', u'black', u'blue']","[u'left', u'middle', u'right']","[0.8, 0.4, 0.2]","[u'low', u'high', u'medium']","red",49,"left","low","False","False",375,5200,NA
"ASC9DUCC64M3P","Thu Oct 01 2020 08:40:20 GMT-0700 (Pacific Daylight Time)","Thu Oct 01 2020 08:48:43 GMT-0700 (Pacific Daylight Time)","Mozilla/5.0 (Macintosh; Intel Mac OS X 10_14_6) AppleWebKit/537.36 (KHTML, like Gecko) Chrome/85.0.4183.121 Safari/537.36",131,"[0.9, 0.5, 0.1]","[0.8, 0.4, 0.2]","[u'red', u'black', u'blue']","[u'left', u'middle', u'right']","[0.8, 0.4, 0.2]","[u'low', u'high', u'medium']","black",50,"middle","high","True","False",379,5300,NA
"ASC9DUCC64M3P","Thu Oct 01 2020 08:40:20 GMT-0700 (Pacific Daylight Time)","Thu Oct 01 2020 08:48:43 GMT-0700 (Pacific Daylight Time)","Mozilla/5.0 (Macintosh; Intel Mac OS X 10_14_6) AppleWebKit/537.36 (KHTML, like Gecko) Chrome/85.0.4183.121 Safari/537.36",132,"[0.9, 0.5, 0.1]","[0.8, 0.4, 0.2]","[u'red', u'black', u'blue']","[u'left', u'middle', u'right']","[0.8, 0.4, 0.2]","[u'low', u'high', u'medium']","black",50,"middle","high","False","False",500,5250,NA
"ASC9DUCC64M3P","Thu Oct 01 2020 08:40:20 GMT-0700 (Pacific Daylight Time)","Thu Oct 01 2020 08:48:43 GMT-0700 (Pacific Daylight Time)","Mozilla/5.0 (Macintosh; Intel Mac OS X 10_14_6) AppleWebKit/537.36 (KHTML, like Gecko) Chrome/85.0.4183.121 Safari/537.36",133,"[0.9, 0.5, 0.1]","[0.8, 0.4, 0.2]","[u'red', u'black', u'blue']","[u'left', u'middle', u'right']","[0.8, 0.4, 0.2]","[u'low', u'high', u'medium']","black",50,"middle","high","True","False",363,5350,NA
"ASC9DUCC64M3P","Thu Oct 01 2020 08:40:20 GMT-0700 (Pacific Daylight Time)","Thu Oct 01 2020 08:48:43 GMT-0700 (Pacific Daylight Time)","Mozilla/5.0 (Macintosh; Intel Mac OS X 10_14_6) AppleWebKit/537.36 (KHTML, like Gecko) Chrome/85.0.4183.121 Safari/537.36",134,"[0.9, 0.5, 0.1]","[0.8, 0.4, 0.2]","[u'red', u'black', u'blue']","[u'left', u'middle', u'right']","[0.8, 0.4, 0.2]","[u'low', u'high', u'medium']","black",50,"middle","high","True","False",412,5450,NA
"ASC9DUCC64M3P","Thu Oct 01 2020 08:40:20 GMT-0700 (Pacific Daylight Time)","Thu Oct 01 2020 08:48:43 GMT-0700 (Pacific Daylight Time)","Mozilla/5.0 (Macintosh; Intel Mac OS X 10_14_6) AppleWebKit/537.36 (KHTML, like Gecko) Chrome/85.0.4183.121 Safari/537.36",135,"[0.9, 0.5, 0.1]","[0.8, 0.4, 0.2]","[u'red', u'black', u'blue']","[u'left', u'middle', u'right']","[0.8, 0.4, 0.2]","[u'low', u'high', u'medium']","black",50,"middle","high","True","False",479,5550,NA
"ASC9DUCC64M3P","Thu Oct 01 2020 08:40:20 GMT-0700 (Pacific Daylight Time)","Thu Oct 01 2020 08:48:43 GMT-0700 (Pacific Daylight Time)","Mozilla/5.0 (Macintosh; Intel Mac OS X 10_14_6) AppleWebKit/537.36 (KHTML, like Gecko) Chrome/85.0.4183.121 Safari/537.36",136,"[0.9, 0.5, 0.1]","[0.8, 0.4, 0.2]","[u'red', u'black', u'blue']","[u'left', u'middle', u'right']","[0.8, 0.4, 0.2]","[u'low', u'high', u'medium']","black",50,"middle","high","True","False",442,5650,NA
"ASC9DUCC64M3P","Thu Oct 01 2020 08:40:20 GMT-0700 (Pacific Daylight Time)","Thu Oct 01 2020 08:48:43 GMT-0700 (Pacific Daylight Time)","Mozilla/5.0 (Macintosh; Intel Mac OS X 10_14_6) AppleWebKit/537.36 (KHTML, like Gecko) Chrome/85.0.4183.121 Safari/537.36",137,"[0.9, 0.5, 0.1]","[0.8, 0.4, 0.2]","[u'red', u'black', u'blue']","[u'left', u'middle', u'right']","[0.8, 0.4, 0.2]","[u'low', u'high', u'medium']","black",50,"middle","high","True","False",468,5750,NA
"ASC9DUCC64M3P","Thu Oct 01 2020 08:40:20 GMT-0700 (Pacific Daylight Time)","Thu Oct 01 2020 08:48:43 GMT-0700 (Pacific Daylight Time)","Mozilla/5.0 (Macintosh; Intel Mac OS X 10_14_6) AppleWebKit/537.36 (KHTML, like Gecko) Chrome/85.0.4183.121 Safari/537.36",138,"[0.9, 0.5, 0.1]","[0.8, 0.4, 0.2]","[u'red', u'black', u'blue']","[u'left', u'middle', u'right']","[0.8, 0.4, 0.2]","[u'low', u'high', u'medium']","black",50,"middle","high","True","False",502,5850,NA
"ASC9DUCC64M3P","Thu Oct 01 2020 08:40:20 GMT-0700 (Pacific Daylight Time)","Thu Oct 01 2020 08:48:43 GMT-0700 (Pacific Daylight Time)","Mozilla/5.0 (Macintosh; Intel Mac OS X 10_14_6) AppleWebKit/537.36 (KHTML, like Gecko) Chrome/85.0.4183.121 Safari/537.36",139,"[0.9, 0.5, 0.1]","[0.8, 0.4, 0.2]","[u'red', u'black', u'blue']","[u'left', u'middle', u'right']","[0.8, 0.4, 0.2]","[u'low', u'high', u'medium']","black",50,"middle","high","True","True",445,5950,NA
"ASC9DUCC64M3P","Thu Oct 01 2020 08:40:20 GMT-0700 (Pacific Daylight Time)","Thu Oct 01 2020 08:48:43 GMT-0700 (Pacific Daylight Time)","Mozilla/5.0 (Macintosh; Intel Mac OS X 10_14_6) AppleWebKit/537.36 (KHTML, like Gecko) Chrome/85.0.4183.121 Safari/537.36",140,"[0.9, 0.5, 0.1]","[0.8, 0.4, 0.2]","[u'red', u'black', u'blue']","[u'left', u'middle', u'right']","[0.8, 0.4, 0.2]","[u'low', u'medium', u'high']","black",50,"middle","medium","False","False",546,5900,NA
"ASC9DUCC64M3P","Thu Oct 01 2020 08:40:20 GMT-0700 (Pacific Daylight Time)","Thu Oct 01 2020 08:48:43 GMT-0700 (Pacific Daylight Time)","Mozilla/5.0 (Macintosh; Intel Mac OS X 10_14_6) AppleWebKit/537.36 (KHTML, like Gecko) Chrome/85.0.4183.121 Safari/537.36",141,"[0.9, 0.5, 0.1]","[0.8, 0.4, 0.2]","[u'red', u'black', u'blue']","[u'left', u'middle', u'right']","[0.8, 0.4, 0.2]","[u'low', u'medium', u'high']","black",50,"middle","medium","False","False",488,5850,NA
"ASC9DUCC64M3P","Thu Oct 01 2020 08:40:20 GMT-0700 (Pacific Daylight Time)","Thu Oct 01 2020 08:48:43 GMT-0700 (Pacific Daylight Time)","Mozilla/5.0 (Macintosh; Intel Mac OS X 10_14_6) AppleWebKit/537.36 (KHTML, like Gecko) Chrome/85.0.4183.121 Safari/537.36",142,"[0.9, 0.5, 0.1]","[0.8, 0.4, 0.2]","[u'red', u'black', u'blue']","[u'left', u'middle', u'right']","[0.8, 0.4, 0.2]","[u'low', u'medium', u'high']","blue",51,"right","high","True","False",511,5950,NA
"ASC9DUCC64M3P","Thu Oct 01 2020 08:40:20 GMT-0700 (Pacific Daylight Time)","Thu Oct 01 2020 08:48:43 GMT-0700 (Pacific Daylight Time)","Mozilla/5.0 (Macintosh; Intel Mac OS X 10_14_6) AppleWebKit/537.36 (KHTML, like Gecko) Chrome/85.0.4183.121 Safari/537.36",143,"[0.9, 0.5, 0.1]","[0.8, 0.4, 0.2]","[u'red', u'black', u'blue']","[u'left', u'middle', u'right']","[0.8, 0.4, 0.2]","[u'low', u'medium', u'high']","blue",51,"right","high","False","False",399,5900,NA
"ASC9DUCC64M3P","Thu Oct 01 2020 08:40:20 GMT-0700 (Pacific Daylight Time)","Thu Oct 01 2020 08:48:43 GMT-0700 (Pacific Daylight Time)","Mozilla/5.0 (Macintosh; Intel Mac OS X 10_14_6) AppleWebKit/537.36 (KHTML, like Gecko) Chrome/85.0.4183.121 Safari/537.36",144,"[0.9, 0.5, 0.1]","[0.8, 0.4, 0.2]","[u'red', u'black', u'blue']","[u'left', u'middle', u'right']","[0.8, 0.4, 0.2]","[u'low', u'medium', u'high']","blue",51,"right","high","True","False",322,6000,NA
"ASC9DUCC64M3P","Thu Oct 01 2020 08:40:20 GMT-0700 (Pacific Daylight Time)","Thu Oct 01 2020 08:48:43 GMT-0700 (Pacific Daylight Time)","Mozilla/5.0 (Macintosh; Intel Mac OS X 10_14_6) AppleWebKit/537.36 (KHTML, like Gecko) Chrome/85.0.4183.121 Safari/537.36",145,"[0.9, 0.5, 0.1]","[0.8, 0.4, 0.2]","[u'red', u'black', u'blue']","[u'left', u'middle', u'right']","[0.8, 0.4, 0.2]","[u'low', u'medium', u'high']","blue",51,"right","high","True","False",456,6100,NA
"ASC9DUCC64M3P","Thu Oct 01 2020 08:40:20 GMT-0700 (Pacific Daylight Time)","Thu Oct 01 2020 08:48:43 GMT-0700 (Pacific Daylight Time)","Mozilla/5.0 (Macintosh; Intel Mac OS X 10_14_6) AppleWebKit/537.36 (KHTML, like Gecko) Chrome/85.0.4183.121 Safari/537.36",146,"[0.9, 0.5, 0.1]","[0.8, 0.4, 0.2]","[u'red', u'black', u'blue']","[u'left', u'middle', u'right']","[0.8, 0.4, 0.2]","[u'low', u'medium', u'high']","blue",51,"right","high","True","False",423,6200,NA
"ASC9DUCC64M3P","Thu Oct 01 2020 08:40:20 GMT-0700 (Pacific Daylight Time)","Thu Oct 01 2020 08:48:43 GMT-0700 (Pacific Daylight Time)","Mozilla/5.0 (Macintosh; Intel Mac OS X 10_14_6) AppleWebKit/537.36 (KHTML, like Gecko) Chrome/85.0.4183.121 Safari/537.36",147,"[0.9, 0.5, 0.1]","[0.8, 0.4, 0.2]","[u'red', u'black', u'blue']","[u'left', u'middle', u'right']","[0.8, 0.4, 0.2]","[u'low', u'medium', u'high']","blue",51,"right","high","False","False",486,6150,NA
"ASC9DUCC64M3P","Thu Oct 01 2020 08:40:20 GMT-0700 (Pacific Daylight Time)","Thu Oct 01 2020 08:48:43 GMT-0700 (Pacific Daylight Time)","Mozilla/5.0 (Macintosh; Intel Mac OS X 10_14_6) AppleWebKit/537.36 (KHTML, like Gecko) Chrome/85.0.4183.121 Safari/537.36",148,"[0.9, 0.5, 0.1]","[0.8, 0.4, 0.2]","[u'red', u'black', u'blue']","[u'left', u'middle', u'right']","[0.8, 0.4, 0.2]","[u'low', u'medium', u'high']","blue",51,"right","high","True","False",318,6250,NA
"ASC9DUCC64M3P","Thu Oct 01 2020 08:40:20 GMT-0700 (Pacific Daylight Time)","Thu Oct 01 2020 08:48:43 GMT-0700 (Pacific Daylight Time)","Mozilla/5.0 (Macintosh; Intel Mac OS X 10_14_6) AppleWebKit/537.36 (KHTML, like Gecko) Chrome/85.0.4183.121 Safari/537.36",149,"[0.9, 0.5, 0.1]","[0.8, 0.4, 0.2]","[u'red', u'black', u'blue']","[u'left', u'middle', u'right']","[0.8, 0.4, 0.2]","[u'low', u'medium', u'high']","blue",51,"right","high","True","False",509,6350,NA
"ASC9DUCC64M3P","Thu Oct 01 2020 08:40:20 GMT-0700 (Pacific Daylight Time)","Thu Oct 01 2020 08:48:43 GMT-0700 (Pacific Daylight Time)","Mozilla/5.0 (Macintosh; Intel Mac OS X 10_14_6) AppleWebKit/537.36 (KHTML, like Gecko) Chrome/85.0.4183.121 Safari/537.36",150,"[0.9, 0.5, 0.1]","[0.8, 0.4, 0.2]","[u'red', u'black', u'blue']","[u'left', u'middle', u'right']","[0.8, 0.4, 0.2]","[u'low', u'medium', u'high']","blue",51,"right","high","True","True",444,6450,NA
"ASC9DUCC64M3P","Thu Oct 01 2020 08:40:20 GMT-0700 (Pacific Daylight Time)","Thu Oct 01 2020 08:48:43 GMT-0700 (Pacific Daylight Time)","Mozilla/5.0 (Macintosh; Intel Mac OS X 10_14_6) AppleWebKit/537.36 (KHTML, like Gecko) Chrome/85.0.4183.121 Safari/537.36",151,"[0.9, 0.5, 0.1]","[0.8, 0.4, 0.2]","[u'red', u'black', u'blue']","[u'left', u'middle', u'right']","[0.8, 0.4, 0.2]","[u'medium', u'high', u'low']","blue",51,"right","low","False","False",388,6400,NA
"ASC9DUCC64M3P","Thu Oct 01 2020 08:40:20 GMT-0700 (Pacific Daylight Time)","Thu Oct 01 2020 08:48:43 GMT-0700 (Pacific Daylight Time)","Mozilla/5.0 (Macintosh; Intel Mac OS X 10_14_6) AppleWebKit/537.36 (KHTML, like Gecko) Chrome/85.0.4183.121 Safari/537.36",152,"[0.9, 0.5, 0.1]","[0.8, 0.4, 0.2]","[u'red', u'black', u'blue']","[u'left', u'middle', u'right']","[0.8, 0.4, 0.2]","[u'medium', u'high', u'low']","blue",51,"right","low","False","False",445,6350,NA
"ASC9DUCC64M3P","Thu Oct 01 2020 08:40:20 GMT-0700 (Pacific Daylight Time)","Thu Oct 01 2020 08:48:43 GMT-0700 (Pacific Daylight Time)","Mozilla/5.0 (Macintosh; Intel Mac OS X 10_14_6) AppleWebKit/537.36 (KHTML, like Gecko) Chrome/85.0.4183.121 Safari/537.36",153,"[0.9, 0.5, 0.1]","[0.8, 0.4, 0.2]","[u'red', u'black', u'blue']","[u'left', u'middle', u'right']","[0.8, 0.4, 0.2]","[u'medium', u'high', u'low']","red",49,"left","medium","True","False",344,6450,NA
"ASC9DUCC64M3P","Thu Oct 01 2020 08:40:20 GMT-0700 (Pacific Daylight Time)","Thu Oct 01 2020 08:48:43 GMT-0700 (Pacific Daylight Time)","Mozilla/5.0 (Macintosh; Intel Mac OS X 10_14_6) AppleWebKit/537.36 (KHTML, like Gecko) Chrome/85.0.4183.121 Safari/537.36",154,"[0.9, 0.5, 0.1]","[0.8, 0.4, 0.2]","[u'red', u'black', u'blue']","[u'left', u'middle', u'right']","[0.8, 0.4, 0.2]","[u'medium', u'high', u'low']","red",49,"left","medium","True","False",389,6550,NA
"ASC9DUCC64M3P","Thu Oct 01 2020 08:40:20 GMT-0700 (Pacific Daylight Time)","Thu Oct 01 2020 08:48:43 GMT-0700 (Pacific Daylight Time)","Mozilla/5.0 (Macintosh; Intel Mac OS X 10_14_6) AppleWebKit/537.36 (KHTML, like Gecko) Chrome/85.0.4183.121 Safari/537.36",155,"[0.9, 0.5, 0.1]","[0.8, 0.4, 0.2]","[u'red', u'black', u'blue']","[u'left', u'middle', u'right']","[0.8, 0.4, 0.2]","[u'medium', u'high', u'low']","red",49,"left","medium","False","False",477,6500,NA
"ASC9DUCC64M3P","Thu Oct 01 2020 08:40:20 GMT-0700 (Pacific Daylight Time)","Thu Oct 01 2020 08:48:43 GMT-0700 (Pacific Daylight Time)","Mozilla/5.0 (Macintosh; Intel Mac OS X 10_14_6) AppleWebKit/537.36 (KHTML, like Gecko) Chrome/85.0.4183.121 Safari/537.36",156,"[0.9, 0.5, 0.1]","[0.8, 0.4, 0.2]","[u'red', u'black', u'blue']","[u'left', u'middle', u'right']","[0.8, 0.4, 0.2]","[u'medium', u'high', u'low']","red",49,"left","medium","True","False",432,6600,NA
"ASC9DUCC64M3P","Thu Oct 01 2020 08:40:20 GMT-0700 (Pacific Daylight Time)","Thu Oct 01 2020 08:48:43 GMT-0700 (Pacific Daylight Time)","Mozilla/5.0 (Macintosh; Intel Mac OS X 10_14_6) AppleWebKit/537.36 (KHTML, like Gecko) Chrome/85.0.4183.121 Safari/537.36",157,"[0.9, 0.5, 0.1]","[0.8, 0.4, 0.2]","[u'red', u'black', u'blue']","[u'left', u'middle', u'right']","[0.8, 0.4, 0.2]","[u'medium', u'high', u'low']","red",49,"left","medium","False","False",375,6550,NA
"ASC9DUCC64M3P","Thu Oct 01 2020 08:40:20 GMT-0700 (Pacific Daylight Time)","Thu Oct 01 2020 08:48:43 GMT-0700 (Pacific Daylight Time)","Mozilla/5.0 (Macintosh; Intel Mac OS X 10_14_6) AppleWebKit/537.36 (KHTML, like Gecko) Chrome/85.0.4183.121 Safari/537.36",158,"[0.9, 0.5, 0.1]","[0.8, 0.4, 0.2]","[u'red', u'black', u'blue']","[u'left', u'middle', u'right']","[0.8, 0.4, 0.2]","[u'medium', u'high', u'low']","black",50,"middle","high","True","False",344,6650,NA
"ASC9DUCC64M3P","Thu Oct 01 2020 08:40:20 GMT-0700 (Pacific Daylight Time)","Thu Oct 01 2020 08:48:43 GMT-0700 (Pacific Daylight Time)","Mozilla/5.0 (Macintosh; Intel Mac OS X 10_14_6) AppleWebKit/537.36 (KHTML, like Gecko) Chrome/85.0.4183.121 Safari/537.36",159,"[0.9, 0.5, 0.1]","[0.8, 0.4, 0.2]","[u'red', u'black', u'blue']","[u'left', u'middle', u'right']","[0.8, 0.4, 0.2]","[u'medium', u'high', u'low']","black",50,"middle","high","True","False",376,6750,NA
"ASC9DUCC64M3P","Thu Oct 01 2020 08:40:20 GMT-0700 (Pacific Daylight Time)","Thu Oct 01 2020 08:48:43 GMT-0700 (Pacific Daylight Time)","Mozilla/5.0 (Macintosh; Intel Mac OS X 10_14_6) AppleWebKit/537.36 (KHTML, like Gecko) Chrome/85.0.4183.121 Safari/537.36",160,"[0.9, 0.5, 0.1]","[0.8, 0.4, 0.2]","[u'red', u'black', u'blue']","[u'left', u'middle', u'right']","[0.8, 0.4, 0.2]","[u'medium', u'high', u'low']","black",50,"middle","high","True","False",400,6850,NA
