"src_subject_id","start_time","end_time","browser","index","first_half_probabilities","second_half_probabilities","deck_color","deck_position","deck_probabilities","deck_contingencies","response_color","key_press","response_position","response_probability","reward_type","trial_type","rt","reward_tally","exclusion_reason"
"A2NAKIXS3DVGAA","Thu Oct 01 2020 13:19:13 GMT-0400 (Eastern Daylight Time)","Thu Oct 01 2020 13:25:24 GMT-0400 (Eastern Daylight Time)","Mozilla/5.0 (X11; Linux x86_64; rv:78.0) Gecko/20100101 Firefox/78.0",1,"[0.9, 0.5, 0.1]","[0.8, 0.4, 0.2]","[u'black', u'blue', u'red']","[u'left', u'middle', u'right']","[0.9, 0.5, 0.1]","[u'low', u'medium', u'high']","black",49,"left","low","False","False",1007,-50,NA
"A2NAKIXS3DVGAA","Thu Oct 01 2020 13:19:13 GMT-0400 (Eastern Daylight Time)","Thu Oct 01 2020 13:25:24 GMT-0400 (Eastern Daylight Time)","Mozilla/5.0 (X11; Linux x86_64; rv:78.0) Gecko/20100101 Firefox/78.0",2,"[0.9, 0.5, 0.1]","[0.8, 0.4, 0.2]","[u'black', u'blue', u'red']","[u'left', u'middle', u'right']","[0.9, 0.5, 0.1]","[u'low', u'medium', u'high']","blue",50,"middle","medium","True","False",1088,50,NA
"A2NAKIXS3DVGAA","Thu Oct 01 2020 13:19:13 GMT-0400 (Eastern Daylight Time)","Thu Oct 01 2020 13:25:24 GMT-0400 (Eastern Daylight Time)","Mozilla/5.0 (X11; Linux x86_64; rv:78.0) Gecko/20100101 Firefox/78.0",3,"[0.9, 0.5, 0.1]","[0.8, 0.4, 0.2]","[u'black', u'blue', u'red']","[u'left', u'middle', u'right']","[0.9, 0.5, 0.1]","[u'low', u'medium', u'high']","red",51,"right","high","True","False",331,150,NA
"A2NAKIXS3DVGAA","Thu Oct 01 2020 13:19:13 GMT-0400 (Eastern Daylight Time)","Thu Oct 01 2020 13:25:24 GMT-0400 (Eastern Daylight Time)","Mozilla/5.0 (X11; Linux x86_64; rv:78.0) Gecko/20100101 Firefox/78.0",4,"[0.9, 0.5, 0.1]","[0.8, 0.4, 0.2]","[u'black', u'blue', u'red']","[u'left', u'middle', u'right']","[0.9, 0.5, 0.1]","[u'low', u'medium', u'high']","red",51,"right","high","True","False",261,250,NA
"A2NAKIXS3DVGAA","Thu Oct 01 2020 13:19:13 GMT-0400 (Eastern Daylight Time)","Thu Oct 01 2020 13:25:24 GMT-0400 (Eastern Daylight Time)","Mozilla/5.0 (X11; Linux x86_64; rv:78.0) Gecko/20100101 Firefox/78.0",5,"[0.9, 0.5, 0.1]","[0.8, 0.4, 0.2]","[u'black', u'blue', u'red']","[u'left', u'middle', u'right']","[0.9, 0.5, 0.1]","[u'low', u'medium', u'high']","red",51,"right","high","True","False",203,350,NA
"A2NAKIXS3DVGAA","Thu Oct 01 2020 13:19:13 GMT-0400 (Eastern Daylight Time)","Thu Oct 01 2020 13:25:24 GMT-0400 (Eastern Daylight Time)","Mozilla/5.0 (X11; Linux x86_64; rv:78.0) Gecko/20100101 Firefox/78.0",6,"[0.9, 0.5, 0.1]","[0.8, 0.4, 0.2]","[u'black', u'blue', u'red']","[u'left', u'middle', u'right']","[0.9, 0.5, 0.1]","[u'low', u'medium', u'high']","red",51,"right","high","True","False",73,450,NA
"A2NAKIXS3DVGAA","Thu Oct 01 2020 13:19:13 GMT-0400 (Eastern Daylight Time)","Thu Oct 01 2020 13:25:24 GMT-0400 (Eastern Daylight Time)","Mozilla/5.0 (X11; Linux x86_64; rv:78.0) Gecko/20100101 Firefox/78.0",7,"[0.9, 0.5, 0.1]","[0.8, 0.4, 0.2]","[u'black', u'blue', u'red']","[u'left', u'middle', u'right']","[0.9, 0.5, 0.1]","[u'low', u'medium', u'high']","red",51,"right","high","False","False",411,400,NA
"A2NAKIXS3DVGAA","Thu Oct 01 2020 13:19:13 GMT-0400 (Eastern Daylight Time)","Thu Oct 01 2020 13:25:24 GMT-0400 (Eastern Daylight Time)","Mozilla/5.0 (X11; Linux x86_64; rv:78.0) Gecko/20100101 Firefox/78.0",8,"[0.9, 0.5, 0.1]","[0.8, 0.4, 0.2]","[u'black', u'blue', u'red']","[u'left', u'middle', u'right']","[0.9, 0.5, 0.1]","[u'low', u'medium', u'high']","blue",50,"middle","medium","True","False",175,500,NA
"A2NAKIXS3DVGAA","Thu Oct 01 2020 13:19:13 GMT-0400 (Eastern Daylight Time)","Thu Oct 01 2020 13:25:24 GMT-0400 (Eastern Daylight Time)","Mozilla/5.0 (X11; Linux x86_64; rv:78.0) Gecko/20100101 Firefox/78.0",9,"[0.9, 0.5, 0.1]","[0.8, 0.4, 0.2]","[u'black', u'blue', u'red']","[u'left', u'middle', u'right']","[0.9, 0.5, 0.1]","[u'low', u'medium', u'high']","blue",50,"middle","medium","False","False",118,450,NA
"A2NAKIXS3DVGAA","Thu Oct 01 2020 13:19:13 GMT-0400 (Eastern Daylight Time)","Thu Oct 01 2020 13:25:24 GMT-0400 (Eastern Daylight Time)","Mozilla/5.0 (X11; Linux x86_64; rv:78.0) Gecko/20100101 Firefox/78.0",10,"[0.9, 0.5, 0.1]","[0.8, 0.4, 0.2]","[u'black', u'blue', u'red']","[u'left', u'middle', u'right']","[0.9, 0.5, 0.1]","[u'low', u'medium', u'high']","black",49,"left","low","False","False",42,400,NA
"A2NAKIXS3DVGAA","Thu Oct 01 2020 13:19:13 GMT-0400 (Eastern Daylight Time)","Thu Oct 01 2020 13:25:24 GMT-0400 (Eastern Daylight Time)","Mozilla/5.0 (X11; Linux x86_64; rv:78.0) Gecko/20100101 Firefox/78.0",11,"[0.9, 0.5, 0.1]","[0.8, 0.4, 0.2]","[u'black', u'blue', u'red']","[u'left', u'middle', u'right']","[0.9, 0.5, 0.1]","[u'low', u'medium', u'high']","red",51,"right","high","True","False",491,500,NA
"A2NAKIXS3DVGAA","Thu Oct 01 2020 13:19:13 GMT-0400 (Eastern Daylight Time)","Thu Oct 01 2020 13:25:24 GMT-0400 (Eastern Daylight Time)","Mozilla/5.0 (X11; Linux x86_64; rv:78.0) Gecko/20100101 Firefox/78.0",12,"[0.9, 0.5, 0.1]","[0.8, 0.4, 0.2]","[u'black', u'blue', u'red']","[u'left', u'middle', u'right']","[0.9, 0.5, 0.1]","[u'low', u'medium', u'high']","red",51,"right","high","True","False",64,600,NA
"A2NAKIXS3DVGAA","Thu Oct 01 2020 13:19:13 GMT-0400 (Eastern Daylight Time)","Thu Oct 01 2020 13:25:24 GMT-0400 (Eastern Daylight Time)","Mozilla/5.0 (X11; Linux x86_64; rv:78.0) Gecko/20100101 Firefox/78.0",13,"[0.9, 0.5, 0.1]","[0.8, 0.4, 0.2]","[u'black', u'blue', u'red']","[u'left', u'middle', u'right']","[0.9, 0.5, 0.1]","[u'low', u'medium', u'high']","red",51,"right","high","True","False",96,700,NA
"A2NAKIXS3DVGAA","Thu Oct 01 2020 13:19:13 GMT-0400 (Eastern Daylight Time)","Thu Oct 01 2020 13:25:24 GMT-0400 (Eastern Daylight Time)","Mozilla/5.0 (X11; Linux x86_64; rv:78.0) Gecko/20100101 Firefox/78.0",14,"[0.9, 0.5, 0.1]","[0.8, 0.4, 0.2]","[u'black', u'blue', u'red']","[u'left', u'middle', u'right']","[0.9, 0.5, 0.1]","[u'low', u'medium', u'high']","red",51,"right","high","True","False",181,800,NA
"A2NAKIXS3DVGAA","Thu Oct 01 2020 13:19:13 GMT-0400 (Eastern Daylight Time)","Thu Oct 01 2020 13:25:24 GMT-0400 (Eastern Daylight Time)","Mozilla/5.0 (X11; Linux x86_64; rv:78.0) Gecko/20100101 Firefox/78.0",15,"[0.9, 0.5, 0.1]","[0.8, 0.4, 0.2]","[u'black', u'blue', u'red']","[u'left', u'middle', u'right']","[0.9, 0.5, 0.1]","[u'low', u'medium', u'high']","red",51,"right","high","True","False",451,900,NA
"A2NAKIXS3DVGAA","Thu Oct 01 2020 13:19:13 GMT-0400 (Eastern Daylight Time)","Thu Oct 01 2020 13:25:24 GMT-0400 (Eastern Daylight Time)","Mozilla/5.0 (X11; Linux x86_64; rv:78.0) Gecko/20100101 Firefox/78.0",16,"[0.9, 0.5, 0.1]","[0.8, 0.4, 0.2]","[u'black', u'blue', u'red']","[u'left', u'middle', u'right']","[0.9, 0.5, 0.1]","[u'low', u'medium', u'high']","red",51,"right","high","True","False",172,1000,NA
"A2NAKIXS3DVGAA","Thu Oct 01 2020 13:19:13 GMT-0400 (Eastern Daylight Time)","Thu Oct 01 2020 13:25:24 GMT-0400 (Eastern Daylight Time)","Mozilla/5.0 (X11; Linux x86_64; rv:78.0) Gecko/20100101 Firefox/78.0",17,"[0.9, 0.5, 0.1]","[0.8, 0.4, 0.2]","[u'black', u'blue', u'red']","[u'left', u'middle', u'right']","[0.9, 0.5, 0.1]","[u'low', u'medium', u'high']","red",51,"right","high","True","False",1336,1100,NA
"A2NAKIXS3DVGAA","Thu Oct 01 2020 13:19:13 GMT-0400 (Eastern Daylight Time)","Thu Oct 01 2020 13:25:24 GMT-0400 (Eastern Daylight Time)","Mozilla/5.0 (X11; Linux x86_64; rv:78.0) Gecko/20100101 Firefox/78.0",18,"[0.9, 0.5, 0.1]","[0.8, 0.4, 0.2]","[u'black', u'blue', u'red']","[u'left', u'middle', u'right']","[0.9, 0.5, 0.1]","[u'low', u'medium', u'high']","red",51,"right","high","True","False",250,1200,NA
"A2NAKIXS3DVGAA","Thu Oct 01 2020 13:19:13 GMT-0400 (Eastern Daylight Time)","Thu Oct 01 2020 13:25:24 GMT-0400 (Eastern Daylight Time)","Mozilla/5.0 (X11; Linux x86_64; rv:78.0) Gecko/20100101 Firefox/78.0",19,"[0.9, 0.5, 0.1]","[0.8, 0.4, 0.2]","[u'black', u'blue', u'red']","[u'left', u'middle', u'right']","[0.9, 0.5, 0.1]","[u'low', u'medium', u'high']","red",51,"right","high","False","True",306,1150,NA
"A2NAKIXS3DVGAA","Thu Oct 01 2020 13:19:13 GMT-0400 (Eastern Daylight Time)","Thu Oct 01 2020 13:25:24 GMT-0400 (Eastern Daylight Time)","Mozilla/5.0 (X11; Linux x86_64; rv:78.0) Gecko/20100101 Firefox/78.0",20,"[0.9, 0.5, 0.1]","[0.8, 0.4, 0.2]","[u'black', u'blue', u'red']","[u'left', u'middle', u'right']","[0.9, 0.5, 0.1]","[u'low', u'high', u'medium']","red",51,"right","medium","True","False",624,1250,NA
"A2NAKIXS3DVGAA","Thu Oct 01 2020 13:19:13 GMT-0400 (Eastern Daylight Time)","Thu Oct 01 2020 13:25:24 GMT-0400 (Eastern Daylight Time)","Mozilla/5.0 (X11; Linux x86_64; rv:78.0) Gecko/20100101 Firefox/78.0",21,"[0.9, 0.5, 0.1]","[0.8, 0.4, 0.2]","[u'black', u'blue', u'red']","[u'left', u'middle', u'right']","[0.9, 0.5, 0.1]","[u'low', u'high', u'medium']","red",51,"right","medium","True","False",225,1350,NA
"A2NAKIXS3DVGAA","Thu Oct 01 2020 13:19:13 GMT-0400 (Eastern Daylight Time)","Thu Oct 01 2020 13:25:24 GMT-0400 (Eastern Daylight Time)","Mozilla/5.0 (X11; Linux x86_64; rv:78.0) Gecko/20100101 Firefox/78.0",22,"[0.9, 0.5, 0.1]","[0.8, 0.4, 0.2]","[u'black', u'blue', u'red']","[u'left', u'middle', u'right']","[0.9, 0.5, 0.1]","[u'low', u'high', u'medium']","red",51,"right","medium","False","False",245,1300,NA
"A2NAKIXS3DVGAA","Thu Oct 01 2020 13:19:13 GMT-0400 (Eastern Daylight Time)","Thu Oct 01 2020 13:25:24 GMT-0400 (Eastern Daylight Time)","Mozilla/5.0 (X11; Linux x86_64; rv:78.0) Gecko/20100101 Firefox/78.0",23,"[0.9, 0.5, 0.1]","[0.8, 0.4, 0.2]","[u'black', u'blue', u'red']","[u'left', u'middle', u'right']","[0.9, 0.5, 0.1]","[u'low', u'high', u'medium']","red",51,"right","medium","True","False",518,1400,NA
"A2NAKIXS3DVGAA","Thu Oct 01 2020 13:19:13 GMT-0400 (Eastern Daylight Time)","Thu Oct 01 2020 13:25:24 GMT-0400 (Eastern Daylight Time)","Mozilla/5.0 (X11; Linux x86_64; rv:78.0) Gecko/20100101 Firefox/78.0",24,"[0.9, 0.5, 0.1]","[0.8, 0.4, 0.2]","[u'black', u'blue', u'red']","[u'left', u'middle', u'right']","[0.9, 0.5, 0.1]","[u'low', u'high', u'medium']","red",51,"right","medium","True","False",151,1500,NA
"A2NAKIXS3DVGAA","Thu Oct 01 2020 13:19:13 GMT-0400 (Eastern Daylight Time)","Thu Oct 01 2020 13:25:24 GMT-0400 (Eastern Daylight Time)","Mozilla/5.0 (X11; Linux x86_64; rv:78.0) Gecko/20100101 Firefox/78.0",25,"[0.9, 0.5, 0.1]","[0.8, 0.4, 0.2]","[u'black', u'blue', u'red']","[u'left', u'middle', u'right']","[0.9, 0.5, 0.1]","[u'low', u'high', u'medium']","red",51,"right","medium","False","False",216,1450,NA
"A2NAKIXS3DVGAA","Thu Oct 01 2020 13:19:13 GMT-0400 (Eastern Daylight Time)","Thu Oct 01 2020 13:25:24 GMT-0400 (Eastern Daylight Time)","Mozilla/5.0 (X11; Linux x86_64; rv:78.0) Gecko/20100101 Firefox/78.0",26,"[0.9, 0.5, 0.1]","[0.8, 0.4, 0.2]","[u'black', u'blue', u'red']","[u'left', u'middle', u'right']","[0.9, 0.5, 0.1]","[u'low', u'high', u'medium']","blue",50,"middle","high","True","False",77,1550,NA
"A2NAKIXS3DVGAA","Thu Oct 01 2020 13:19:13 GMT-0400 (Eastern Daylight Time)","Thu Oct 01 2020 13:25:24 GMT-0400 (Eastern Daylight Time)","Mozilla/5.0 (X11; Linux x86_64; rv:78.0) Gecko/20100101 Firefox/78.0",27,"[0.9, 0.5, 0.1]","[0.8, 0.4, 0.2]","[u'black', u'blue', u'red']","[u'left', u'middle', u'right']","[0.9, 0.5, 0.1]","[u'low', u'high', u'medium']","blue",50,"middle","high","True","False",43,1650,NA
"A2NAKIXS3DVGAA","Thu Oct 01 2020 13:19:13 GMT-0400 (Eastern Daylight Time)","Thu Oct 01 2020 13:25:24 GMT-0400 (Eastern Daylight Time)","Mozilla/5.0 (X11; Linux x86_64; rv:78.0) Gecko/20100101 Firefox/78.0",28,"[0.9, 0.5, 0.1]","[0.8, 0.4, 0.2]","[u'black', u'blue', u'red']","[u'left', u'middle', u'right']","[0.9, 0.5, 0.1]","[u'low', u'high', u'medium']","blue",50,"middle","high","True","False",51,1750,NA
"A2NAKIXS3DVGAA","Thu Oct 01 2020 13:19:13 GMT-0400 (Eastern Daylight Time)","Thu Oct 01 2020 13:25:24 GMT-0400 (Eastern Daylight Time)","Mozilla/5.0 (X11; Linux x86_64; rv:78.0) Gecko/20100101 Firefox/78.0",29,"[0.9, 0.5, 0.1]","[0.8, 0.4, 0.2]","[u'black', u'blue', u'red']","[u'left', u'middle', u'right']","[0.9, 0.5, 0.1]","[u'low', u'high', u'medium']","blue",50,"middle","high","True","False",96,1850,NA
"A2NAKIXS3DVGAA","Thu Oct 01 2020 13:19:13 GMT-0400 (Eastern Daylight Time)","Thu Oct 01 2020 13:25:24 GMT-0400 (Eastern Daylight Time)","Mozilla/5.0 (X11; Linux x86_64; rv:78.0) Gecko/20100101 Firefox/78.0",30,"[0.9, 0.5, 0.1]","[0.8, 0.4, 0.2]","[u'black', u'blue', u'red']","[u'left', u'middle', u'right']","[0.9, 0.5, 0.1]","[u'low', u'high', u'medium']","blue",50,"middle","high","True","False",241,1950,NA
"A2NAKIXS3DVGAA","Thu Oct 01 2020 13:19:13 GMT-0400 (Eastern Daylight Time)","Thu Oct 01 2020 13:25:24 GMT-0400 (Eastern Daylight Time)","Mozilla/5.0 (X11; Linux x86_64; rv:78.0) Gecko/20100101 Firefox/78.0",31,"[0.9, 0.5, 0.1]","[0.8, 0.4, 0.2]","[u'black', u'blue', u'red']","[u'left', u'middle', u'right']","[0.9, 0.5, 0.1]","[u'low', u'high', u'medium']","blue",50,"middle","high","True","False",48,2050,NA
"A2NAKIXS3DVGAA","Thu Oct 01 2020 13:19:13 GMT-0400 (Eastern Daylight Time)","Thu Oct 01 2020 13:25:24 GMT-0400 (Eastern Daylight Time)","Mozilla/5.0 (X11; Linux x86_64; rv:78.0) Gecko/20100101 Firefox/78.0",32,"[0.9, 0.5, 0.1]","[0.8, 0.4, 0.2]","[u'black', u'blue', u'red']","[u'left', u'middle', u'right']","[0.9, 0.5, 0.1]","[u'low', u'high', u'medium']","blue",50,"middle","high","False","False",389,2000,NA
"A2NAKIXS3DVGAA","Thu Oct 01 2020 13:19:13 GMT-0400 (Eastern Daylight Time)","Thu Oct 01 2020 13:25:24 GMT-0400 (Eastern Daylight Time)","Mozilla/5.0 (X11; Linux x86_64; rv:78.0) Gecko/20100101 Firefox/78.0",33,"[0.9, 0.5, 0.1]","[0.8, 0.4, 0.2]","[u'black', u'blue', u'red']","[u'left', u'middle', u'right']","[0.9, 0.5, 0.1]","[u'low', u'high', u'medium']","blue",50,"middle","high","True","False",116,2100,NA
"A2NAKIXS3DVGAA","Thu Oct 01 2020 13:19:13 GMT-0400 (Eastern Daylight Time)","Thu Oct 01 2020 13:25:24 GMT-0400 (Eastern Daylight Time)","Mozilla/5.0 (X11; Linux x86_64; rv:78.0) Gecko/20100101 Firefox/78.0",34,"[0.9, 0.5, 0.1]","[0.8, 0.4, 0.2]","[u'black', u'blue', u'red']","[u'left', u'middle', u'right']","[0.9, 0.5, 0.1]","[u'low', u'high', u'medium']","blue",50,"middle","high","True","True",97,2200,NA
"A2NAKIXS3DVGAA","Thu Oct 01 2020 13:19:13 GMT-0400 (Eastern Daylight Time)","Thu Oct 01 2020 13:25:24 GMT-0400 (Eastern Daylight Time)","Mozilla/5.0 (X11; Linux x86_64; rv:78.0) Gecko/20100101 Firefox/78.0",35,"[0.9, 0.5, 0.1]","[0.8, 0.4, 0.2]","[u'black', u'blue', u'red']","[u'left', u'middle', u'right']","[0.9, 0.5, 0.1]","[u'low', u'medium', u'high']","blue",50,"middle","medium","True","False",87,2300,NA
"A2NAKIXS3DVGAA","Thu Oct 01 2020 13:19:13 GMT-0400 (Eastern Daylight Time)","Thu Oct 01 2020 13:25:24 GMT-0400 (Eastern Daylight Time)","Mozilla/5.0 (X11; Linux x86_64; rv:78.0) Gecko/20100101 Firefox/78.0",36,"[0.9, 0.5, 0.1]","[0.8, 0.4, 0.2]","[u'black', u'blue', u'red']","[u'left', u'middle', u'right']","[0.9, 0.5, 0.1]","[u'low', u'medium', u'high']","blue",50,"middle","medium","False","False",474,2250,NA
"A2NAKIXS3DVGAA","Thu Oct 01 2020 13:19:13 GMT-0400 (Eastern Daylight Time)","Thu Oct 01 2020 13:25:24 GMT-0400 (Eastern Daylight Time)","Mozilla/5.0 (X11; Linux x86_64; rv:78.0) Gecko/20100101 Firefox/78.0",37,"[0.9, 0.5, 0.1]","[0.8, 0.4, 0.2]","[u'black', u'blue', u'red']","[u'left', u'middle', u'right']","[0.9, 0.5, 0.1]","[u'low', u'medium', u'high']","blue",50,"middle","medium","False","False",7,2200,NA
"A2NAKIXS3DVGAA","Thu Oct 01 2020 13:19:13 GMT-0400 (Eastern Daylight Time)","Thu Oct 01 2020 13:25:24 GMT-0400 (Eastern Daylight Time)","Mozilla/5.0 (X11; Linux x86_64; rv:78.0) Gecko/20100101 Firefox/78.0",38,"[0.9, 0.5, 0.1]","[0.8, 0.4, 0.2]","[u'black', u'blue', u'red']","[u'left', u'middle', u'right']","[0.9, 0.5, 0.1]","[u'low', u'medium', u'high']","red",51,"right","high","True","False",327,2300,NA
"A2NAKIXS3DVGAA","Thu Oct 01 2020 13:19:13 GMT-0400 (Eastern Daylight Time)","Thu Oct 01 2020 13:25:24 GMT-0400 (Eastern Daylight Time)","Mozilla/5.0 (X11; Linux x86_64; rv:78.0) Gecko/20100101 Firefox/78.0",39,"[0.9, 0.5, 0.1]","[0.8, 0.4, 0.2]","[u'black', u'blue', u'red']","[u'left', u'middle', u'right']","[0.9, 0.5, 0.1]","[u'low', u'medium', u'high']","red",51,"right","high","True","False",36,2400,NA
"A2NAKIXS3DVGAA","Thu Oct 01 2020 13:19:13 GMT-0400 (Eastern Daylight Time)","Thu Oct 01 2020 13:25:24 GMT-0400 (Eastern Daylight Time)","Mozilla/5.0 (X11; Linux x86_64; rv:78.0) Gecko/20100101 Firefox/78.0",40,"[0.9, 0.5, 0.1]","[0.8, 0.4, 0.2]","[u'black', u'blue', u'red']","[u'left', u'middle', u'right']","[0.9, 0.5, 0.1]","[u'low', u'medium', u'high']","red",51,"right","high","True","False",197,2500,NA
"A2NAKIXS3DVGAA","Thu Oct 01 2020 13:19:13 GMT-0400 (Eastern Daylight Time)","Thu Oct 01 2020 13:25:24 GMT-0400 (Eastern Daylight Time)","Mozilla/5.0 (X11; Linux x86_64; rv:78.0) Gecko/20100101 Firefox/78.0",41,"[0.9, 0.5, 0.1]","[0.8, 0.4, 0.2]","[u'black', u'blue', u'red']","[u'left', u'middle', u'right']","[0.9, 0.5, 0.1]","[u'medium', u'high', u'low']","red",51,"right","low","False","False",798,2450,NA
"A2NAKIXS3DVGAA","Thu Oct 01 2020 13:19:13 GMT-0400 (Eastern Daylight Time)","Thu Oct 01 2020 13:25:24 GMT-0400 (Eastern Daylight Time)","Mozilla/5.0 (X11; Linux x86_64; rv:78.0) Gecko/20100101 Firefox/78.0",42,"[0.9, 0.5, 0.1]","[0.8, 0.4, 0.2]","[u'black', u'blue', u'red']","[u'left', u'middle', u'right']","[0.9, 0.5, 0.1]","[u'medium', u'high', u'low']","red",51,"right","low","False","False",408,2400,NA
"A2NAKIXS3DVGAA","Thu Oct 01 2020 13:19:13 GMT-0400 (Eastern Daylight Time)","Thu Oct 01 2020 13:25:24 GMT-0400 (Eastern Daylight Time)","Mozilla/5.0 (X11; Linux x86_64; rv:78.0) Gecko/20100101 Firefox/78.0",43,"[0.9, 0.5, 0.1]","[0.8, 0.4, 0.2]","[u'black', u'blue', u'red']","[u'left', u'middle', u'right']","[0.9, 0.5, 0.1]","[u'medium', u'high', u'low']","black",49,"left","medium","True","False",206,2500,NA
"A2NAKIXS3DVGAA","Thu Oct 01 2020 13:19:13 GMT-0400 (Eastern Daylight Time)","Thu Oct 01 2020 13:25:24 GMT-0400 (Eastern Daylight Time)","Mozilla/5.0 (X11; Linux x86_64; rv:78.0) Gecko/20100101 Firefox/78.0",44,"[0.9, 0.5, 0.1]","[0.8, 0.4, 0.2]","[u'black', u'blue', u'red']","[u'left', u'middle', u'right']","[0.9, 0.5, 0.1]","[u'medium', u'high', u'low']","black",49,"left","medium","True","False",57,2600,NA
"A2NAKIXS3DVGAA","Thu Oct 01 2020 13:19:13 GMT-0400 (Eastern Daylight Time)","Thu Oct 01 2020 13:25:24 GMT-0400 (Eastern Daylight Time)","Mozilla/5.0 (X11; Linux x86_64; rv:78.0) Gecko/20100101 Firefox/78.0",45,"[0.9, 0.5, 0.1]","[0.8, 0.4, 0.2]","[u'black', u'blue', u'red']","[u'left', u'middle', u'right']","[0.9, 0.5, 0.1]","[u'medium', u'high', u'low']","black",49,"left","medium","False","False",86,2550,NA
"A2NAKIXS3DVGAA","Thu Oct 01 2020 13:19:13 GMT-0400 (Eastern Daylight Time)","Thu Oct 01 2020 13:25:24 GMT-0400 (Eastern Daylight Time)","Mozilla/5.0 (X11; Linux x86_64; rv:78.0) Gecko/20100101 Firefox/78.0",46,"[0.9, 0.5, 0.1]","[0.8, 0.4, 0.2]","[u'black', u'blue', u'red']","[u'left', u'middle', u'right']","[0.9, 0.5, 0.1]","[u'medium', u'high', u'low']","black",49,"left","medium","False","False",88,2500,NA
"A2NAKIXS3DVGAA","Thu Oct 01 2020 13:19:13 GMT-0400 (Eastern Daylight Time)","Thu Oct 01 2020 13:25:24 GMT-0400 (Eastern Daylight Time)","Mozilla/5.0 (X11; Linux x86_64; rv:78.0) Gecko/20100101 Firefox/78.0",47,"[0.9, 0.5, 0.1]","[0.8, 0.4, 0.2]","[u'black', u'blue', u'red']","[u'left', u'middle', u'right']","[0.9, 0.5, 0.1]","[u'medium', u'high', u'low']","blue",50,"middle","high","True","False",372,2600,NA
"A2NAKIXS3DVGAA","Thu Oct 01 2020 13:19:13 GMT-0400 (Eastern Daylight Time)","Thu Oct 01 2020 13:25:24 GMT-0400 (Eastern Daylight Time)","Mozilla/5.0 (X11; Linux x86_64; rv:78.0) Gecko/20100101 Firefox/78.0",48,"[0.9, 0.5, 0.1]","[0.8, 0.4, 0.2]","[u'black', u'blue', u'red']","[u'left', u'middle', u'right']","[0.9, 0.5, 0.1]","[u'medium', u'high', u'low']","blue",50,"middle","high","True","False",353,2700,NA
"A2NAKIXS3DVGAA","Thu Oct 01 2020 13:19:13 GMT-0400 (Eastern Daylight Time)","Thu Oct 01 2020 13:25:24 GMT-0400 (Eastern Daylight Time)","Mozilla/5.0 (X11; Linux x86_64; rv:78.0) Gecko/20100101 Firefox/78.0",49,"[0.9, 0.5, 0.1]","[0.8, 0.4, 0.2]","[u'black', u'blue', u'red']","[u'left', u'middle', u'right']","[0.9, 0.5, 0.1]","[u'medium', u'high', u'low']","blue",50,"middle","high","True","False",10,2800,NA
"A2NAKIXS3DVGAA","Thu Oct 01 2020 13:19:13 GMT-0400 (Eastern Daylight Time)","Thu Oct 01 2020 13:25:24 GMT-0400 (Eastern Daylight Time)","Mozilla/5.0 (X11; Linux x86_64; rv:78.0) Gecko/20100101 Firefox/78.0",50,"[0.9, 0.5, 0.1]","[0.8, 0.4, 0.2]","[u'black', u'blue', u'red']","[u'left', u'middle', u'right']","[0.9, 0.5, 0.1]","[u'medium', u'high', u'low']","blue",50,"middle","high","True","False",81,2900,NA
"A2NAKIXS3DVGAA","Thu Oct 01 2020 13:19:13 GMT-0400 (Eastern Daylight Time)","Thu Oct 01 2020 13:25:24 GMT-0400 (Eastern Daylight Time)","Mozilla/5.0 (X11; Linux x86_64; rv:78.0) Gecko/20100101 Firefox/78.0",51,"[0.9, 0.5, 0.1]","[0.8, 0.4, 0.2]","[u'black', u'blue', u'red']","[u'left', u'middle', u'right']","[0.9, 0.5, 0.1]","[u'medium', u'high', u'low']","blue",50,"middle","high","True","False",730,3000,NA
"A2NAKIXS3DVGAA","Thu Oct 01 2020 13:19:13 GMT-0400 (Eastern Daylight Time)","Thu Oct 01 2020 13:25:24 GMT-0400 (Eastern Daylight Time)","Mozilla/5.0 (X11; Linux x86_64; rv:78.0) Gecko/20100101 Firefox/78.0",52,"[0.9, 0.5, 0.1]","[0.8, 0.4, 0.2]","[u'black', u'blue', u'red']","[u'left', u'middle', u'right']","[0.9, 0.5, 0.1]","[u'medium', u'high', u'low']","blue",50,"middle","high","True","False",183,3100,NA
"A2NAKIXS3DVGAA","Thu Oct 01 2020 13:19:13 GMT-0400 (Eastern Daylight Time)","Thu Oct 01 2020 13:25:24 GMT-0400 (Eastern Daylight Time)","Mozilla/5.0 (X11; Linux x86_64; rv:78.0) Gecko/20100101 Firefox/78.0",53,"[0.9, 0.5, 0.1]","[0.8, 0.4, 0.2]","[u'black', u'blue', u'red']","[u'left', u'middle', u'right']","[0.9, 0.5, 0.1]","[u'medium', u'high', u'low']","blue",50,"middle","high","False","False",111,3050,NA
"A2NAKIXS3DVGAA","Thu Oct 01 2020 13:19:13 GMT-0400 (Eastern Daylight Time)","Thu Oct 01 2020 13:25:24 GMT-0400 (Eastern Daylight Time)","Mozilla/5.0 (X11; Linux x86_64; rv:78.0) Gecko/20100101 Firefox/78.0",54,"[0.9, 0.5, 0.1]","[0.8, 0.4, 0.2]","[u'black', u'blue', u'red']","[u'left', u'middle', u'right']","[0.9, 0.5, 0.1]","[u'medium', u'high', u'low']","blue",50,"middle","high","True","False",444,3150,NA
"A2NAKIXS3DVGAA","Thu Oct 01 2020 13:19:13 GMT-0400 (Eastern Daylight Time)","Thu Oct 01 2020 13:25:24 GMT-0400 (Eastern Daylight Time)","Mozilla/5.0 (X11; Linux x86_64; rv:78.0) Gecko/20100101 Firefox/78.0",55,"[0.9, 0.5, 0.1]","[0.8, 0.4, 0.2]","[u'black', u'blue', u'red']","[u'left', u'middle', u'right']","[0.9, 0.5, 0.1]","[u'medium', u'high', u'low']","blue",50,"middle","high","True","True",794,3250,NA
"A2NAKIXS3DVGAA","Thu Oct 01 2020 13:19:13 GMT-0400 (Eastern Daylight Time)","Thu Oct 01 2020 13:25:24 GMT-0400 (Eastern Daylight Time)","Mozilla/5.0 (X11; Linux x86_64; rv:78.0) Gecko/20100101 Firefox/78.0",56,"[0.9, 0.5, 0.1]","[0.8, 0.4, 0.2]","[u'black', u'blue', u'red']","[u'left', u'middle', u'right']","[0.9, 0.5, 0.1]","[u'medium', u'low', u'high']","blue",50,"middle","low","False","False",460,3200,NA
"A2NAKIXS3DVGAA","Thu Oct 01 2020 13:19:13 GMT-0400 (Eastern Daylight Time)","Thu Oct 01 2020 13:25:24 GMT-0400 (Eastern Daylight Time)","Mozilla/5.0 (X11; Linux x86_64; rv:78.0) Gecko/20100101 Firefox/78.0",57,"[0.9, 0.5, 0.1]","[0.8, 0.4, 0.2]","[u'black', u'blue', u'red']","[u'left', u'middle', u'right']","[0.9, 0.5, 0.1]","[u'medium', u'low', u'high']","blue",50,"middle","low","False","False",138,3150,NA
"A2NAKIXS3DVGAA","Thu Oct 01 2020 13:19:13 GMT-0400 (Eastern Daylight Time)","Thu Oct 01 2020 13:25:24 GMT-0400 (Eastern Daylight Time)","Mozilla/5.0 (X11; Linux x86_64; rv:78.0) Gecko/20100101 Firefox/78.0",58,"[0.9, 0.5, 0.1]","[0.8, 0.4, 0.2]","[u'black', u'blue', u'red']","[u'left', u'middle', u'right']","[0.9, 0.5, 0.1]","[u'medium', u'low', u'high']","red",51,"right","high","True","False",90,3250,NA
"A2NAKIXS3DVGAA","Thu Oct 01 2020 13:19:13 GMT-0400 (Eastern Daylight Time)","Thu Oct 01 2020 13:25:24 GMT-0400 (Eastern Daylight Time)","Mozilla/5.0 (X11; Linux x86_64; rv:78.0) Gecko/20100101 Firefox/78.0",59,"[0.9, 0.5, 0.1]","[0.8, 0.4, 0.2]","[u'black', u'blue', u'red']","[u'left', u'middle', u'right']","[0.9, 0.5, 0.1]","[u'medium', u'low', u'high']","red",51,"right","high","True","False",141,3350,NA
"A2NAKIXS3DVGAA","Thu Oct 01 2020 13:19:13 GMT-0400 (Eastern Daylight Time)","Thu Oct 01 2020 13:25:24 GMT-0400 (Eastern Daylight Time)","Mozilla/5.0 (X11; Linux x86_64; rv:78.0) Gecko/20100101 Firefox/78.0",60,"[0.9, 0.5, 0.1]","[0.8, 0.4, 0.2]","[u'black', u'blue', u'red']","[u'left', u'middle', u'right']","[0.9, 0.5, 0.1]","[u'medium', u'low', u'high']","red",51,"right","high","True","False",431,3450,NA
"A2NAKIXS3DVGAA","Thu Oct 01 2020 13:19:13 GMT-0400 (Eastern Daylight Time)","Thu Oct 01 2020 13:25:24 GMT-0400 (Eastern Daylight Time)","Mozilla/5.0 (X11; Linux x86_64; rv:78.0) Gecko/20100101 Firefox/78.0",61,"[0.9, 0.5, 0.1]","[0.8, 0.4, 0.2]","[u'black', u'blue', u'red']","[u'left', u'middle', u'right']","[0.9, 0.5, 0.1]","[u'medium', u'low', u'high']","red",51,"right","high","True","False",41,3550,NA
"A2NAKIXS3DVGAA","Thu Oct 01 2020 13:19:13 GMT-0400 (Eastern Daylight Time)","Thu Oct 01 2020 13:25:24 GMT-0400 (Eastern Daylight Time)","Mozilla/5.0 (X11; Linux x86_64; rv:78.0) Gecko/20100101 Firefox/78.0",62,"[0.9, 0.5, 0.1]","[0.8, 0.4, 0.2]","[u'black', u'blue', u'red']","[u'left', u'middle', u'right']","[0.9, 0.5, 0.1]","[u'medium', u'low', u'high']","red",51,"right","high","True","False",174,3650,NA
"A2NAKIXS3DVGAA","Thu Oct 01 2020 13:19:13 GMT-0400 (Eastern Daylight Time)","Thu Oct 01 2020 13:25:24 GMT-0400 (Eastern Daylight Time)","Mozilla/5.0 (X11; Linux x86_64; rv:78.0) Gecko/20100101 Firefox/78.0",63,"[0.9, 0.5, 0.1]","[0.8, 0.4, 0.2]","[u'black', u'blue', u'red']","[u'left', u'middle', u'right']","[0.9, 0.5, 0.1]","[u'medium', u'low', u'high']","red",51,"right","high","True","False",63,3750,NA
"A2NAKIXS3DVGAA","Thu Oct 01 2020 13:19:13 GMT-0400 (Eastern Daylight Time)","Thu Oct 01 2020 13:25:24 GMT-0400 (Eastern Daylight Time)","Mozilla/5.0 (X11; Linux x86_64; rv:78.0) Gecko/20100101 Firefox/78.0",64,"[0.9, 0.5, 0.1]","[0.8, 0.4, 0.2]","[u'black', u'blue', u'red']","[u'left', u'middle', u'right']","[0.9, 0.5, 0.1]","[u'medium', u'low', u'high']","red",51,"right","high","True","False",104,3850,NA
"A2NAKIXS3DVGAA","Thu Oct 01 2020 13:19:13 GMT-0400 (Eastern Daylight Time)","Thu Oct 01 2020 13:25:24 GMT-0400 (Eastern Daylight Time)","Mozilla/5.0 (X11; Linux x86_64; rv:78.0) Gecko/20100101 Firefox/78.0",65,"[0.9, 0.5, 0.1]","[0.8, 0.4, 0.2]","[u'black', u'blue', u'red']","[u'left', u'middle', u'right']","[0.9, 0.5, 0.1]","[u'medium', u'low', u'high']","red",51,"right","high","True","False",75,3950,NA
"A2NAKIXS3DVGAA","Thu Oct 01 2020 13:19:13 GMT-0400 (Eastern Daylight Time)","Thu Oct 01 2020 13:25:24 GMT-0400 (Eastern Daylight Time)","Mozilla/5.0 (X11; Linux x86_64; rv:78.0) Gecko/20100101 Firefox/78.0",66,"[0.9, 0.5, 0.1]","[0.8, 0.4, 0.2]","[u'black', u'blue', u'red']","[u'left', u'middle', u'right']","[0.9, 0.5, 0.1]","[u'medium', u'low', u'high']","red",51,"right","high","True","True",58,4050,NA
"A2NAKIXS3DVGAA","Thu Oct 01 2020 13:19:13 GMT-0400 (Eastern Daylight Time)","Thu Oct 01 2020 13:25:24 GMT-0400 (Eastern Daylight Time)","Mozilla/5.0 (X11; Linux x86_64; rv:78.0) Gecko/20100101 Firefox/78.0",67,"[0.9, 0.5, 0.1]","[0.8, 0.4, 0.2]","[u'black', u'blue', u'red']","[u'left', u'middle', u'right']","[0.9, 0.5, 0.1]","[u'high', u'medium', u'low']","red",51,"right","low","True","False",116,4150,NA
"A2NAKIXS3DVGAA","Thu Oct 01 2020 13:19:13 GMT-0400 (Eastern Daylight Time)","Thu Oct 01 2020 13:25:24 GMT-0400 (Eastern Daylight Time)","Mozilla/5.0 (X11; Linux x86_64; rv:78.0) Gecko/20100101 Firefox/78.0",68,"[0.9, 0.5, 0.1]","[0.8, 0.4, 0.2]","[u'black', u'blue', u'red']","[u'left', u'middle', u'right']","[0.9, 0.5, 0.1]","[u'high', u'medium', u'low']","red",51,"right","low","False","False",67,4100,NA
"A2NAKIXS3DVGAA","Thu Oct 01 2020 13:19:13 GMT-0400 (Eastern Daylight Time)","Thu Oct 01 2020 13:25:24 GMT-0400 (Eastern Daylight Time)","Mozilla/5.0 (X11; Linux x86_64; rv:78.0) Gecko/20100101 Firefox/78.0",69,"[0.9, 0.5, 0.1]","[0.8, 0.4, 0.2]","[u'black', u'blue', u'red']","[u'left', u'middle', u'right']","[0.9, 0.5, 0.1]","[u'high', u'medium', u'low']","red",51,"right","low","True","False",62,4200,NA
"A2NAKIXS3DVGAA","Thu Oct 01 2020 13:19:13 GMT-0400 (Eastern Daylight Time)","Thu Oct 01 2020 13:25:24 GMT-0400 (Eastern Daylight Time)","Mozilla/5.0 (X11; Linux x86_64; rv:78.0) Gecko/20100101 Firefox/78.0",70,"[0.9, 0.5, 0.1]","[0.8, 0.4, 0.2]","[u'black', u'blue', u'red']","[u'left', u'middle', u'right']","[0.9, 0.5, 0.1]","[u'high', u'medium', u'low']","red",51,"right","low","False","False",146,4150,NA
"A2NAKIXS3DVGAA","Thu Oct 01 2020 13:19:13 GMT-0400 (Eastern Daylight Time)","Thu Oct 01 2020 13:25:24 GMT-0400 (Eastern Daylight Time)","Mozilla/5.0 (X11; Linux x86_64; rv:78.0) Gecko/20100101 Firefox/78.0",71,"[0.9, 0.5, 0.1]","[0.8, 0.4, 0.2]","[u'black', u'blue', u'red']","[u'left', u'middle', u'right']","[0.9, 0.5, 0.1]","[u'high', u'medium', u'low']","black",49,"left","high","True","False",92,4250,NA
"A2NAKIXS3DVGAA","Thu Oct 01 2020 13:19:13 GMT-0400 (Eastern Daylight Time)","Thu Oct 01 2020 13:25:24 GMT-0400 (Eastern Daylight Time)","Mozilla/5.0 (X11; Linux x86_64; rv:78.0) Gecko/20100101 Firefox/78.0",72,"[0.9, 0.5, 0.1]","[0.8, 0.4, 0.2]","[u'black', u'blue', u'red']","[u'left', u'middle', u'right']","[0.9, 0.5, 0.1]","[u'high', u'medium', u'low']","black",49,"left","high","False","False",91,4200,NA
"A2NAKIXS3DVGAA","Thu Oct 01 2020 13:19:13 GMT-0400 (Eastern Daylight Time)","Thu Oct 01 2020 13:25:24 GMT-0400 (Eastern Daylight Time)","Mozilla/5.0 (X11; Linux x86_64; rv:78.0) Gecko/20100101 Firefox/78.0",73,"[0.9, 0.5, 0.1]","[0.8, 0.4, 0.2]","[u'black', u'blue', u'red']","[u'left', u'middle', u'right']","[0.9, 0.5, 0.1]","[u'high', u'medium', u'low']","black",49,"left","high","True","False",86,4300,NA
"A2NAKIXS3DVGAA","Thu Oct 01 2020 13:19:13 GMT-0400 (Eastern Daylight Time)","Thu Oct 01 2020 13:25:24 GMT-0400 (Eastern Daylight Time)","Mozilla/5.0 (X11; Linux x86_64; rv:78.0) Gecko/20100101 Firefox/78.0",74,"[0.9, 0.5, 0.1]","[0.8, 0.4, 0.2]","[u'black', u'blue', u'red']","[u'left', u'middle', u'right']","[0.9, 0.5, 0.1]","[u'high', u'medium', u'low']","black",49,"left","high","True","False",40,4400,NA
"A2NAKIXS3DVGAA","Thu Oct 01 2020 13:19:13 GMT-0400 (Eastern Daylight Time)","Thu Oct 01 2020 13:25:24 GMT-0400 (Eastern Daylight Time)","Mozilla/5.0 (X11; Linux x86_64; rv:78.0) Gecko/20100101 Firefox/78.0",75,"[0.9, 0.5, 0.1]","[0.8, 0.4, 0.2]","[u'black', u'blue', u'red']","[u'left', u'middle', u'right']","[0.9, 0.5, 0.1]","[u'high', u'medium', u'low']","black",49,"left","high","True","False",13,4500,NA
"A2NAKIXS3DVGAA","Thu Oct 01 2020 13:19:13 GMT-0400 (Eastern Daylight Time)","Thu Oct 01 2020 13:25:24 GMT-0400 (Eastern Daylight Time)","Mozilla/5.0 (X11; Linux x86_64; rv:78.0) Gecko/20100101 Firefox/78.0",76,"[0.9, 0.5, 0.1]","[0.8, 0.4, 0.2]","[u'black', u'blue', u'red']","[u'left', u'middle', u'right']","[0.9, 0.5, 0.1]","[u'high', u'medium', u'low']","black",49,"left","high","True","False",95,4600,NA
"A2NAKIXS3DVGAA","Thu Oct 01 2020 13:19:13 GMT-0400 (Eastern Daylight Time)","Thu Oct 01 2020 13:25:24 GMT-0400 (Eastern Daylight Time)","Mozilla/5.0 (X11; Linux x86_64; rv:78.0) Gecko/20100101 Firefox/78.0",77,"[0.9, 0.5, 0.1]","[0.8, 0.4, 0.2]","[u'black', u'blue', u'red']","[u'left', u'middle', u'right']","[0.9, 0.5, 0.1]","[u'high', u'medium', u'low']","black",49,"left","high","True","False",343,4700,NA
"A2NAKIXS3DVGAA","Thu Oct 01 2020 13:19:13 GMT-0400 (Eastern Daylight Time)","Thu Oct 01 2020 13:25:24 GMT-0400 (Eastern Daylight Time)","Mozilla/5.0 (X11; Linux x86_64; rv:78.0) Gecko/20100101 Firefox/78.0",78,"[0.9, 0.5, 0.1]","[0.8, 0.4, 0.2]","[u'black', u'blue', u'red']","[u'left', u'middle', u'right']","[0.9, 0.5, 0.1]","[u'high', u'medium', u'low']","black",49,"left","high","True","False",41,4800,NA
"A2NAKIXS3DVGAA","Thu Oct 01 2020 13:19:13 GMT-0400 (Eastern Daylight Time)","Thu Oct 01 2020 13:25:24 GMT-0400 (Eastern Daylight Time)","Mozilla/5.0 (X11; Linux x86_64; rv:78.0) Gecko/20100101 Firefox/78.0",79,"[0.9, 0.5, 0.1]","[0.8, 0.4, 0.2]","[u'black', u'blue', u'red']","[u'left', u'middle', u'right']","[0.9, 0.5, 0.1]","[u'high', u'medium', u'low']","black",49,"left","high","True","True",23,4900,NA
"A2NAKIXS3DVGAA","Thu Oct 01 2020 13:19:13 GMT-0400 (Eastern Daylight Time)","Thu Oct 01 2020 13:25:24 GMT-0400 (Eastern Daylight Time)","Mozilla/5.0 (X11; Linux x86_64; rv:78.0) Gecko/20100101 Firefox/78.0",80,"[0.9, 0.5, 0.1]","[0.8, 0.4, 0.2]","[u'black', u'blue', u'red']","[u'left', u'middle', u'right']","[0.9, 0.5, 0.1]","[u'low', u'high', u'medium']","black",49,"left","low","False","False",95,4850,NA
"A2NAKIXS3DVGAA","Thu Oct 01 2020 13:19:13 GMT-0400 (Eastern Daylight Time)","Thu Oct 01 2020 13:25:24 GMT-0400 (Eastern Daylight Time)","Mozilla/5.0 (X11; Linux x86_64; rv:78.0) Gecko/20100101 Firefox/78.0",81,"[0.9, 0.5, 0.1]","[0.8, 0.4, 0.2]","[u'black', u'blue', u'red']","[u'left', u'middle', u'right']","[0.8, 0.4, 0.2]","[u'high', u'medium', u'low']","black",49,"left","high","True","False",344,4950,NA
"A2NAKIXS3DVGAA","Thu Oct 01 2020 13:19:13 GMT-0400 (Eastern Daylight Time)","Thu Oct 01 2020 13:25:24 GMT-0400 (Eastern Daylight Time)","Mozilla/5.0 (X11; Linux x86_64; rv:78.0) Gecko/20100101 Firefox/78.0",82,"[0.9, 0.5, 0.1]","[0.8, 0.4, 0.2]","[u'black', u'blue', u'red']","[u'left', u'middle', u'right']","[0.8, 0.4, 0.2]","[u'high', u'medium', u'low']","black",49,"left","high","True","False",87,5050,NA
"A2NAKIXS3DVGAA","Thu Oct 01 2020 13:19:13 GMT-0400 (Eastern Daylight Time)","Thu Oct 01 2020 13:25:24 GMT-0400 (Eastern Daylight Time)","Mozilla/5.0 (X11; Linux x86_64; rv:78.0) Gecko/20100101 Firefox/78.0",83,"[0.9, 0.5, 0.1]","[0.8, 0.4, 0.2]","[u'black', u'blue', u'red']","[u'left', u'middle', u'right']","[0.8, 0.4, 0.2]","[u'high', u'medium', u'low']","black",49,"left","high","True","False",284,5150,NA
"A2NAKIXS3DVGAA","Thu Oct 01 2020 13:19:13 GMT-0400 (Eastern Daylight Time)","Thu Oct 01 2020 13:25:24 GMT-0400 (Eastern Daylight Time)","Mozilla/5.0 (X11; Linux x86_64; rv:78.0) Gecko/20100101 Firefox/78.0",84,"[0.9, 0.5, 0.1]","[0.8, 0.4, 0.2]","[u'black', u'blue', u'red']","[u'left', u'middle', u'right']","[0.8, 0.4, 0.2]","[u'high', u'medium', u'low']","black",49,"left","high","True","False",43,5250,NA
"A2NAKIXS3DVGAA","Thu Oct 01 2020 13:19:13 GMT-0400 (Eastern Daylight Time)","Thu Oct 01 2020 13:25:24 GMT-0400 (Eastern Daylight Time)","Mozilla/5.0 (X11; Linux x86_64; rv:78.0) Gecko/20100101 Firefox/78.0",85,"[0.9, 0.5, 0.1]","[0.8, 0.4, 0.2]","[u'black', u'blue', u'red']","[u'left', u'middle', u'right']","[0.8, 0.4, 0.2]","[u'high', u'medium', u'low']","black",49,"left","high","True","False",189,5350,NA
"A2NAKIXS3DVGAA","Thu Oct 01 2020 13:19:13 GMT-0400 (Eastern Daylight Time)","Thu Oct 01 2020 13:25:24 GMT-0400 (Eastern Daylight Time)","Mozilla/5.0 (X11; Linux x86_64; rv:78.0) Gecko/20100101 Firefox/78.0",86,"[0.9, 0.5, 0.1]","[0.8, 0.4, 0.2]","[u'black', u'blue', u'red']","[u'left', u'middle', u'right']","[0.8, 0.4, 0.2]","[u'high', u'medium', u'low']","black",49,"left","high","False","False",166,5300,NA
"A2NAKIXS3DVGAA","Thu Oct 01 2020 13:19:13 GMT-0400 (Eastern Daylight Time)","Thu Oct 01 2020 13:25:24 GMT-0400 (Eastern Daylight Time)","Mozilla/5.0 (X11; Linux x86_64; rv:78.0) Gecko/20100101 Firefox/78.0",87,"[0.9, 0.5, 0.1]","[0.8, 0.4, 0.2]","[u'black', u'blue', u'red']","[u'left', u'middle', u'right']","[0.8, 0.4, 0.2]","[u'high', u'medium', u'low']","black",49,"left","high","True","False",376,5400,NA
"A2NAKIXS3DVGAA","Thu Oct 01 2020 13:19:13 GMT-0400 (Eastern Daylight Time)","Thu Oct 01 2020 13:25:24 GMT-0400 (Eastern Daylight Time)","Mozilla/5.0 (X11; Linux x86_64; rv:78.0) Gecko/20100101 Firefox/78.0",88,"[0.9, 0.5, 0.1]","[0.8, 0.4, 0.2]","[u'black', u'blue', u'red']","[u'left', u'middle', u'right']","[0.8, 0.4, 0.2]","[u'high', u'medium', u'low']","black",49,"left","high","True","False",146,5500,NA
"A2NAKIXS3DVGAA","Thu Oct 01 2020 13:19:13 GMT-0400 (Eastern Daylight Time)","Thu Oct 01 2020 13:25:24 GMT-0400 (Eastern Daylight Time)","Mozilla/5.0 (X11; Linux x86_64; rv:78.0) Gecko/20100101 Firefox/78.0",89,"[0.9, 0.5, 0.1]","[0.8, 0.4, 0.2]","[u'black', u'blue', u'red']","[u'left', u'middle', u'right']","[0.8, 0.4, 0.2]","[u'high', u'medium', u'low']","black",49,"left","high","True","True",213,5600,NA
"A2NAKIXS3DVGAA","Thu Oct 01 2020 13:19:13 GMT-0400 (Eastern Daylight Time)","Thu Oct 01 2020 13:25:24 GMT-0400 (Eastern Daylight Time)","Mozilla/5.0 (X11; Linux x86_64; rv:78.0) Gecko/20100101 Firefox/78.0",90,"[0.9, 0.5, 0.1]","[0.8, 0.4, 0.2]","[u'black', u'blue', u'red']","[u'left', u'middle', u'right']","[0.8, 0.4, 0.2]","[u'medium', u'low', u'high']","black",49,"left","medium","False","False",139,5550,NA
"A2NAKIXS3DVGAA","Thu Oct 01 2020 13:19:13 GMT-0400 (Eastern Daylight Time)","Thu Oct 01 2020 13:25:24 GMT-0400 (Eastern Daylight Time)","Mozilla/5.0 (X11; Linux x86_64; rv:78.0) Gecko/20100101 Firefox/78.0",91,"[0.9, 0.5, 0.1]","[0.8, 0.4, 0.2]","[u'black', u'blue', u'red']","[u'left', u'middle', u'right']","[0.8, 0.4, 0.2]","[u'medium', u'low', u'high']","black",49,"left","medium","True","False",49,5650,NA
"A2NAKIXS3DVGAA","Thu Oct 01 2020 13:19:13 GMT-0400 (Eastern Daylight Time)","Thu Oct 01 2020 13:25:24 GMT-0400 (Eastern Daylight Time)","Mozilla/5.0 (X11; Linux x86_64; rv:78.0) Gecko/20100101 Firefox/78.0",92,"[0.9, 0.5, 0.1]","[0.8, 0.4, 0.2]","[u'black', u'blue', u'red']","[u'left', u'middle', u'right']","[0.8, 0.4, 0.2]","[u'medium', u'low', u'high']","black",49,"left","medium","False","False",97,5600,NA
"A2NAKIXS3DVGAA","Thu Oct 01 2020 13:19:13 GMT-0400 (Eastern Daylight Time)","Thu Oct 01 2020 13:25:24 GMT-0400 (Eastern Daylight Time)","Mozilla/5.0 (X11; Linux x86_64; rv:78.0) Gecko/20100101 Firefox/78.0",93,"[0.9, 0.5, 0.1]","[0.8, 0.4, 0.2]","[u'black', u'blue', u'red']","[u'left', u'middle', u'right']","[0.8, 0.4, 0.2]","[u'medium', u'low', u'high']","blue",50,"middle","low","False","False",47,5550,NA
"A2NAKIXS3DVGAA","Thu Oct 01 2020 13:19:13 GMT-0400 (Eastern Daylight Time)","Thu Oct 01 2020 13:25:24 GMT-0400 (Eastern Daylight Time)","Mozilla/5.0 (X11; Linux x86_64; rv:78.0) Gecko/20100101 Firefox/78.0",94,"[0.9, 0.5, 0.1]","[0.8, 0.4, 0.2]","[u'black', u'blue', u'red']","[u'left', u'middle', u'right']","[0.8, 0.4, 0.2]","[u'medium', u'low', u'high']","red",51,"right","high","True","False",133,5650,NA
"A2NAKIXS3DVGAA","Thu Oct 01 2020 13:19:13 GMT-0400 (Eastern Daylight Time)","Thu Oct 01 2020 13:25:24 GMT-0400 (Eastern Daylight Time)","Mozilla/5.0 (X11; Linux x86_64; rv:78.0) Gecko/20100101 Firefox/78.0",95,"[0.9, 0.5, 0.1]","[0.8, 0.4, 0.2]","[u'black', u'blue', u'red']","[u'left', u'middle', u'right']","[0.8, 0.4, 0.2]","[u'medium', u'low', u'high']","red",51,"right","high","True","False",120,5750,NA
"A2NAKIXS3DVGAA","Thu Oct 01 2020 13:19:13 GMT-0400 (Eastern Daylight Time)","Thu Oct 01 2020 13:25:24 GMT-0400 (Eastern Daylight Time)","Mozilla/5.0 (X11; Linux x86_64; rv:78.0) Gecko/20100101 Firefox/78.0",96,"[0.9, 0.5, 0.1]","[0.8, 0.4, 0.2]","[u'black', u'blue', u'red']","[u'left', u'middle', u'right']","[0.8, 0.4, 0.2]","[u'medium', u'low', u'high']","red",51,"right","high","True","False",40,5850,NA
"A2NAKIXS3DVGAA","Thu Oct 01 2020 13:19:13 GMT-0400 (Eastern Daylight Time)","Thu Oct 01 2020 13:25:24 GMT-0400 (Eastern Daylight Time)","Mozilla/5.0 (X11; Linux x86_64; rv:78.0) Gecko/20100101 Firefox/78.0",97,"[0.9, 0.5, 0.1]","[0.8, 0.4, 0.2]","[u'black', u'blue', u'red']","[u'left', u'middle', u'right']","[0.8, 0.4, 0.2]","[u'medium', u'low', u'high']","red",51,"right","high","True","False",117,5950,NA
"A2NAKIXS3DVGAA","Thu Oct 01 2020 13:19:13 GMT-0400 (Eastern Daylight Time)","Thu Oct 01 2020 13:25:24 GMT-0400 (Eastern Daylight Time)","Mozilla/5.0 (X11; Linux x86_64; rv:78.0) Gecko/20100101 Firefox/78.0",98,"[0.9, 0.5, 0.1]","[0.8, 0.4, 0.2]","[u'black', u'blue', u'red']","[u'left', u'middle', u'right']","[0.8, 0.4, 0.2]","[u'medium', u'low', u'high']","red",51,"right","high","True","False",472,6050,NA
"A2NAKIXS3DVGAA","Thu Oct 01 2020 13:19:13 GMT-0400 (Eastern Daylight Time)","Thu Oct 01 2020 13:25:24 GMT-0400 (Eastern Daylight Time)","Mozilla/5.0 (X11; Linux x86_64; rv:78.0) Gecko/20100101 Firefox/78.0",99,"[0.9, 0.5, 0.1]","[0.8, 0.4, 0.2]","[u'black', u'blue', u'red']","[u'left', u'middle', u'right']","[0.8, 0.4, 0.2]","[u'medium', u'low', u'high']","red",51,"right","high","True","False",57,6150,NA
"A2NAKIXS3DVGAA","Thu Oct 01 2020 13:19:13 GMT-0400 (Eastern Daylight Time)","Thu Oct 01 2020 13:25:24 GMT-0400 (Eastern Daylight Time)","Mozilla/5.0 (X11; Linux x86_64; rv:78.0) Gecko/20100101 Firefox/78.0",100,"[0.9, 0.5, 0.1]","[0.8, 0.4, 0.2]","[u'black', u'blue', u'red']","[u'left', u'middle', u'right']","[0.8, 0.4, 0.2]","[u'medium', u'low', u'high']","red",51,"right","high","True","False",28,6250,NA
"A2NAKIXS3DVGAA","Thu Oct 01 2020 13:19:13 GMT-0400 (Eastern Daylight Time)","Thu Oct 01 2020 13:25:24 GMT-0400 (Eastern Daylight Time)","Mozilla/5.0 (X11; Linux x86_64; rv:78.0) Gecko/20100101 Firefox/78.0",101,"[0.9, 0.5, 0.1]","[0.8, 0.4, 0.2]","[u'black', u'blue', u'red']","[u'left', u'middle', u'right']","[0.8, 0.4, 0.2]","[u'medium', u'low', u'high']","red",51,"right","high","False","False",13,6200,NA
"A2NAKIXS3DVGAA","Thu Oct 01 2020 13:19:13 GMT-0400 (Eastern Daylight Time)","Thu Oct 01 2020 13:25:24 GMT-0400 (Eastern Daylight Time)","Mozilla/5.0 (X11; Linux x86_64; rv:78.0) Gecko/20100101 Firefox/78.0",102,"[0.9, 0.5, 0.1]","[0.8, 0.4, 0.2]","[u'black', u'blue', u'red']","[u'left', u'middle', u'right']","[0.8, 0.4, 0.2]","[u'medium', u'low', u'high']","red",51,"right","high","True","True",506,6300,NA
"A2NAKIXS3DVGAA","Thu Oct 01 2020 13:19:13 GMT-0400 (Eastern Daylight Time)","Thu Oct 01 2020 13:25:24 GMT-0400 (Eastern Daylight Time)","Mozilla/5.0 (X11; Linux x86_64; rv:78.0) Gecko/20100101 Firefox/78.0",103,"[0.9, 0.5, 0.1]","[0.8, 0.4, 0.2]","[u'black', u'blue', u'red']","[u'left', u'middle', u'right']","[0.8, 0.4, 0.2]","[u'medium', u'high', u'low']","red",51,"right","low","True","False",213,6400,NA
"A2NAKIXS3DVGAA","Thu Oct 01 2020 13:19:13 GMT-0400 (Eastern Daylight Time)","Thu Oct 01 2020 13:25:24 GMT-0400 (Eastern Daylight Time)","Mozilla/5.0 (X11; Linux x86_64; rv:78.0) Gecko/20100101 Firefox/78.0",104,"[0.9, 0.5, 0.1]","[0.8, 0.4, 0.2]","[u'black', u'blue', u'red']","[u'left', u'middle', u'right']","[0.8, 0.4, 0.2]","[u'medium', u'high', u'low']","red",51,"right","low","False","False",129,6350,NA
"A2NAKIXS3DVGAA","Thu Oct 01 2020 13:19:13 GMT-0400 (Eastern Daylight Time)","Thu Oct 01 2020 13:25:24 GMT-0400 (Eastern Daylight Time)","Mozilla/5.0 (X11; Linux x86_64; rv:78.0) Gecko/20100101 Firefox/78.0",105,"[0.9, 0.5, 0.1]","[0.8, 0.4, 0.2]","[u'black', u'blue', u'red']","[u'left', u'middle', u'right']","[0.8, 0.4, 0.2]","[u'medium', u'high', u'low']","red",51,"right","low","False","False",83,6300,NA
"A2NAKIXS3DVGAA","Thu Oct 01 2020 13:19:13 GMT-0400 (Eastern Daylight Time)","Thu Oct 01 2020 13:25:24 GMT-0400 (Eastern Daylight Time)","Mozilla/5.0 (X11; Linux x86_64; rv:78.0) Gecko/20100101 Firefox/78.0",106,"[0.9, 0.5, 0.1]","[0.8, 0.4, 0.2]","[u'black', u'blue', u'red']","[u'left', u'middle', u'right']","[0.8, 0.4, 0.2]","[u'medium', u'high', u'low']","black",49,"left","medium","False","False",123,6250,NA
"A2NAKIXS3DVGAA","Thu Oct 01 2020 13:19:13 GMT-0400 (Eastern Daylight Time)","Thu Oct 01 2020 13:25:24 GMT-0400 (Eastern Daylight Time)","Mozilla/5.0 (X11; Linux x86_64; rv:78.0) Gecko/20100101 Firefox/78.0",107,"[0.9, 0.5, 0.1]","[0.8, 0.4, 0.2]","[u'black', u'blue', u'red']","[u'left', u'middle', u'right']","[0.8, 0.4, 0.2]","[u'medium', u'high', u'low']","blue",50,"middle","high","True","False",356,6350,NA
"A2NAKIXS3DVGAA","Thu Oct 01 2020 13:19:13 GMT-0400 (Eastern Daylight Time)","Thu Oct 01 2020 13:25:24 GMT-0400 (Eastern Daylight Time)","Mozilla/5.0 (X11; Linux x86_64; rv:78.0) Gecko/20100101 Firefox/78.0",108,"[0.9, 0.5, 0.1]","[0.8, 0.4, 0.2]","[u'black', u'blue', u'red']","[u'left', u'middle', u'right']","[0.8, 0.4, 0.2]","[u'medium', u'high', u'low']","blue",50,"middle","high","True","False",117,6450,NA
"A2NAKIXS3DVGAA","Thu Oct 01 2020 13:19:13 GMT-0400 (Eastern Daylight Time)","Thu Oct 01 2020 13:25:24 GMT-0400 (Eastern Daylight Time)","Mozilla/5.0 (X11; Linux x86_64; rv:78.0) Gecko/20100101 Firefox/78.0",109,"[0.9, 0.5, 0.1]","[0.8, 0.4, 0.2]","[u'black', u'blue', u'red']","[u'left', u'middle', u'right']","[0.8, 0.4, 0.2]","[u'medium', u'high', u'low']","blue",50,"middle","high","True","False",114,6550,NA
"A2NAKIXS3DVGAA","Thu Oct 01 2020 13:19:13 GMT-0400 (Eastern Daylight Time)","Thu Oct 01 2020 13:25:24 GMT-0400 (Eastern Daylight Time)","Mozilla/5.0 (X11; Linux x86_64; rv:78.0) Gecko/20100101 Firefox/78.0",110,"[0.9, 0.5, 0.1]","[0.8, 0.4, 0.2]","[u'black', u'blue', u'red']","[u'left', u'middle', u'right']","[0.8, 0.4, 0.2]","[u'medium', u'high', u'low']","blue",50,"middle","high","False","False",216,6500,NA
"A2NAKIXS3DVGAA","Thu Oct 01 2020 13:19:13 GMT-0400 (Eastern Daylight Time)","Thu Oct 01 2020 13:25:24 GMT-0400 (Eastern Daylight Time)","Mozilla/5.0 (X11; Linux x86_64; rv:78.0) Gecko/20100101 Firefox/78.0",111,"[0.9, 0.5, 0.1]","[0.8, 0.4, 0.2]","[u'black', u'blue', u'red']","[u'left', u'middle', u'right']","[0.8, 0.4, 0.2]","[u'medium', u'high', u'low']","blue",50,"middle","high","True","False",111,6600,NA
"A2NAKIXS3DVGAA","Thu Oct 01 2020 13:19:13 GMT-0400 (Eastern Daylight Time)","Thu Oct 01 2020 13:25:24 GMT-0400 (Eastern Daylight Time)","Mozilla/5.0 (X11; Linux x86_64; rv:78.0) Gecko/20100101 Firefox/78.0",112,"[0.9, 0.5, 0.1]","[0.8, 0.4, 0.2]","[u'black', u'blue', u'red']","[u'left', u'middle', u'right']","[0.8, 0.4, 0.2]","[u'medium', u'high', u'low']","blue",50,"middle","high","False","False",171,6550,NA
"A2NAKIXS3DVGAA","Thu Oct 01 2020 13:19:13 GMT-0400 (Eastern Daylight Time)","Thu Oct 01 2020 13:25:24 GMT-0400 (Eastern Daylight Time)","Mozilla/5.0 (X11; Linux x86_64; rv:78.0) Gecko/20100101 Firefox/78.0",113,"[0.9, 0.5, 0.1]","[0.8, 0.4, 0.2]","[u'black', u'blue', u'red']","[u'left', u'middle', u'right']","[0.8, 0.4, 0.2]","[u'medium', u'high', u'low']","red",51,"right","low","False","False",83,6500,NA
"A2NAKIXS3DVGAA","Thu Oct 01 2020 13:19:13 GMT-0400 (Eastern Daylight Time)","Thu Oct 01 2020 13:25:24 GMT-0400 (Eastern Daylight Time)","Mozilla/5.0 (X11; Linux x86_64; rv:78.0) Gecko/20100101 Firefox/78.0",114,"[0.9, 0.5, 0.1]","[0.8, 0.4, 0.2]","[u'black', u'blue', u'red']","[u'left', u'middle', u'right']","[0.8, 0.4, 0.2]","[u'medium', u'high', u'low']","black",49,"left","medium","False","False",45,6450,NA
"A2NAKIXS3DVGAA","Thu Oct 01 2020 13:19:13 GMT-0400 (Eastern Daylight Time)","Thu Oct 01 2020 13:25:24 GMT-0400 (Eastern Daylight Time)","Mozilla/5.0 (X11; Linux x86_64; rv:78.0) Gecko/20100101 Firefox/78.0",115,"[0.9, 0.5, 0.1]","[0.8, 0.4, 0.2]","[u'black', u'blue', u'red']","[u'left', u'middle', u'right']","[0.8, 0.4, 0.2]","[u'medium', u'high', u'low']","blue",50,"middle","high","True","False",312,6550,NA
"A2NAKIXS3DVGAA","Thu Oct 01 2020 13:19:13 GMT-0400 (Eastern Daylight Time)","Thu Oct 01 2020 13:25:24 GMT-0400 (Eastern Daylight Time)","Mozilla/5.0 (X11; Linux x86_64; rv:78.0) Gecko/20100101 Firefox/78.0",116,"[0.9, 0.5, 0.1]","[0.8, 0.4, 0.2]","[u'black', u'blue', u'red']","[u'left', u'middle', u'right']","[0.8, 0.4, 0.2]","[u'medium', u'high', u'low']","blue",50,"middle","high","True","False",124,6650,NA
"A2NAKIXS3DVGAA","Thu Oct 01 2020 13:19:13 GMT-0400 (Eastern Daylight Time)","Thu Oct 01 2020 13:25:24 GMT-0400 (Eastern Daylight Time)","Mozilla/5.0 (X11; Linux x86_64; rv:78.0) Gecko/20100101 Firefox/78.0",117,"[0.9, 0.5, 0.1]","[0.8, 0.4, 0.2]","[u'black', u'blue', u'red']","[u'left', u'middle', u'right']","[0.8, 0.4, 0.2]","[u'medium', u'high', u'low']","blue",50,"middle","high","True","False",168,6750,NA
"A2NAKIXS3DVGAA","Thu Oct 01 2020 13:19:13 GMT-0400 (Eastern Daylight Time)","Thu Oct 01 2020 13:25:24 GMT-0400 (Eastern Daylight Time)","Mozilla/5.0 (X11; Linux x86_64; rv:78.0) Gecko/20100101 Firefox/78.0",118,"[0.9, 0.5, 0.1]","[0.8, 0.4, 0.2]","[u'black', u'blue', u'red']","[u'left', u'middle', u'right']","[0.8, 0.4, 0.2]","[u'medium', u'high', u'low']","blue",50,"middle","high","True","False",73,6850,NA
"A2NAKIXS3DVGAA","Thu Oct 01 2020 13:19:13 GMT-0400 (Eastern Daylight Time)","Thu Oct 01 2020 13:25:24 GMT-0400 (Eastern Daylight Time)","Mozilla/5.0 (X11; Linux x86_64; rv:78.0) Gecko/20100101 Firefox/78.0",119,"[0.9, 0.5, 0.1]","[0.8, 0.4, 0.2]","[u'black', u'blue', u'red']","[u'left', u'middle', u'right']","[0.8, 0.4, 0.2]","[u'medium', u'high', u'low']","blue",50,"middle","high","True","False",72,6950,NA
"A2NAKIXS3DVGAA","Thu Oct 01 2020 13:19:13 GMT-0400 (Eastern Daylight Time)","Thu Oct 01 2020 13:25:24 GMT-0400 (Eastern Daylight Time)","Mozilla/5.0 (X11; Linux x86_64; rv:78.0) Gecko/20100101 Firefox/78.0",120,"[0.9, 0.5, 0.1]","[0.8, 0.4, 0.2]","[u'black', u'blue', u'red']","[u'left', u'middle', u'right']","[0.8, 0.4, 0.2]","[u'medium', u'high', u'low']","blue",50,"middle","high","True","False",111,7050,NA
"A2NAKIXS3DVGAA","Thu Oct 01 2020 13:19:13 GMT-0400 (Eastern Daylight Time)","Thu Oct 01 2020 13:25:24 GMT-0400 (Eastern Daylight Time)","Mozilla/5.0 (X11; Linux x86_64; rv:78.0) Gecko/20100101 Firefox/78.0",121,"[0.9, 0.5, 0.1]","[0.8, 0.4, 0.2]","[u'black', u'blue', u'red']","[u'left', u'middle', u'right']","[0.8, 0.4, 0.2]","[u'high', u'low', u'medium']","blue",50,"middle","low","False","False",765,7000,NA
"A2NAKIXS3DVGAA","Thu Oct 01 2020 13:19:13 GMT-0400 (Eastern Daylight Time)","Thu Oct 01 2020 13:25:24 GMT-0400 (Eastern Daylight Time)","Mozilla/5.0 (X11; Linux x86_64; rv:78.0) Gecko/20100101 Firefox/78.0",122,"[0.9, 0.5, 0.1]","[0.8, 0.4, 0.2]","[u'black', u'blue', u'red']","[u'left', u'middle', u'right']","[0.8, 0.4, 0.2]","[u'high', u'low', u'medium']","blue",50,"middle","low","False","False",438,6950,NA
"A2NAKIXS3DVGAA","Thu Oct 01 2020 13:19:13 GMT-0400 (Eastern Daylight Time)","Thu Oct 01 2020 13:25:24 GMT-0400 (Eastern Daylight Time)","Mozilla/5.0 (X11; Linux x86_64; rv:78.0) Gecko/20100101 Firefox/78.0",123,"[0.9, 0.5, 0.1]","[0.8, 0.4, 0.2]","[u'black', u'blue', u'red']","[u'left', u'middle', u'right']","[0.8, 0.4, 0.2]","[u'high', u'low', u'medium']","black",49,"left","high","True","False",93,7050,NA
"A2NAKIXS3DVGAA","Thu Oct 01 2020 13:19:13 GMT-0400 (Eastern Daylight Time)","Thu Oct 01 2020 13:25:24 GMT-0400 (Eastern Daylight Time)","Mozilla/5.0 (X11; Linux x86_64; rv:78.0) Gecko/20100101 Firefox/78.0",124,"[0.9, 0.5, 0.1]","[0.8, 0.4, 0.2]","[u'black', u'blue', u'red']","[u'left', u'middle', u'right']","[0.8, 0.4, 0.2]","[u'high', u'low', u'medium']","black",49,"left","high","False","False",366,7000,NA
"A2NAKIXS3DVGAA","Thu Oct 01 2020 13:19:13 GMT-0400 (Eastern Daylight Time)","Thu Oct 01 2020 13:25:24 GMT-0400 (Eastern Daylight Time)","Mozilla/5.0 (X11; Linux x86_64; rv:78.0) Gecko/20100101 Firefox/78.0",125,"[0.9, 0.5, 0.1]","[0.8, 0.4, 0.2]","[u'black', u'blue', u'red']","[u'left', u'middle', u'right']","[0.8, 0.4, 0.2]","[u'high', u'low', u'medium']","black",49,"left","high","False","False",155,6950,NA
"A2NAKIXS3DVGAA","Thu Oct 01 2020 13:19:13 GMT-0400 (Eastern Daylight Time)","Thu Oct 01 2020 13:25:24 GMT-0400 (Eastern Daylight Time)","Mozilla/5.0 (X11; Linux x86_64; rv:78.0) Gecko/20100101 Firefox/78.0",126,"[0.9, 0.5, 0.1]","[0.8, 0.4, 0.2]","[u'black', u'blue', u'red']","[u'left', u'middle', u'right']","[0.8, 0.4, 0.2]","[u'high', u'low', u'medium']","red",51,"right","medium","False","False",64,6900,NA
"A2NAKIXS3DVGAA","Thu Oct 01 2020 13:19:13 GMT-0400 (Eastern Daylight Time)","Thu Oct 01 2020 13:25:24 GMT-0400 (Eastern Daylight Time)","Mozilla/5.0 (X11; Linux x86_64; rv:78.0) Gecko/20100101 Firefox/78.0",127,"[0.9, 0.5, 0.1]","[0.8, 0.4, 0.2]","[u'black', u'blue', u'red']","[u'left', u'middle', u'right']","[0.8, 0.4, 0.2]","[u'high', u'low', u'medium']","red",51,"right","medium","True","False",463,7000,NA
"A2NAKIXS3DVGAA","Thu Oct 01 2020 13:19:13 GMT-0400 (Eastern Daylight Time)","Thu Oct 01 2020 13:25:24 GMT-0400 (Eastern Daylight Time)","Mozilla/5.0 (X11; Linux x86_64; rv:78.0) Gecko/20100101 Firefox/78.0",128,"[0.9, 0.5, 0.1]","[0.8, 0.4, 0.2]","[u'black', u'blue', u'red']","[u'left', u'middle', u'right']","[0.8, 0.4, 0.2]","[u'high', u'low', u'medium']","red",51,"right","medium","True","False",143,7100,NA
"A2NAKIXS3DVGAA","Thu Oct 01 2020 13:19:13 GMT-0400 (Eastern Daylight Time)","Thu Oct 01 2020 13:25:24 GMT-0400 (Eastern Daylight Time)","Mozilla/5.0 (X11; Linux x86_64; rv:78.0) Gecko/20100101 Firefox/78.0",129,"[0.9, 0.5, 0.1]","[0.8, 0.4, 0.2]","[u'black', u'blue', u'red']","[u'left', u'middle', u'right']","[0.8, 0.4, 0.2]","[u'high', u'low', u'medium']","red",51,"right","medium","False","False",5,7050,NA
"A2NAKIXS3DVGAA","Thu Oct 01 2020 13:19:13 GMT-0400 (Eastern Daylight Time)","Thu Oct 01 2020 13:25:24 GMT-0400 (Eastern Daylight Time)","Mozilla/5.0 (X11; Linux x86_64; rv:78.0) Gecko/20100101 Firefox/78.0",130,"[0.9, 0.5, 0.1]","[0.8, 0.4, 0.2]","[u'black', u'blue', u'red']","[u'left', u'middle', u'right']","[0.8, 0.4, 0.2]","[u'high', u'low', u'medium']","red",51,"right","medium","True","False",521,7150,NA
"A2NAKIXS3DVGAA","Thu Oct 01 2020 13:19:13 GMT-0400 (Eastern Daylight Time)","Thu Oct 01 2020 13:25:24 GMT-0400 (Eastern Daylight Time)","Mozilla/5.0 (X11; Linux x86_64; rv:78.0) Gecko/20100101 Firefox/78.0",131,"[0.9, 0.5, 0.1]","[0.8, 0.4, 0.2]","[u'black', u'blue', u'red']","[u'left', u'middle', u'right']","[0.8, 0.4, 0.2]","[u'high', u'low', u'medium']","red",51,"right","medium","False","False",142,7100,NA
"A2NAKIXS3DVGAA","Thu Oct 01 2020 13:19:13 GMT-0400 (Eastern Daylight Time)","Thu Oct 01 2020 13:25:24 GMT-0400 (Eastern Daylight Time)","Mozilla/5.0 (X11; Linux x86_64; rv:78.0) Gecko/20100101 Firefox/78.0",132,"[0.9, 0.5, 0.1]","[0.8, 0.4, 0.2]","[u'black', u'blue', u'red']","[u'left', u'middle', u'right']","[0.8, 0.4, 0.2]","[u'high', u'low', u'medium']","red",51,"right","medium","True","False",97,7200,NA
"A2NAKIXS3DVGAA","Thu Oct 01 2020 13:19:13 GMT-0400 (Eastern Daylight Time)","Thu Oct 01 2020 13:25:24 GMT-0400 (Eastern Daylight Time)","Mozilla/5.0 (X11; Linux x86_64; rv:78.0) Gecko/20100101 Firefox/78.0",133,"[0.9, 0.5, 0.1]","[0.8, 0.4, 0.2]","[u'black', u'blue', u'red']","[u'left', u'middle', u'right']","[0.8, 0.4, 0.2]","[u'high', u'low', u'medium']","red",51,"right","medium","False","False",82,7150,NA
"A2NAKIXS3DVGAA","Thu Oct 01 2020 13:19:13 GMT-0400 (Eastern Daylight Time)","Thu Oct 01 2020 13:25:24 GMT-0400 (Eastern Daylight Time)","Mozilla/5.0 (X11; Linux x86_64; rv:78.0) Gecko/20100101 Firefox/78.0",134,"[0.9, 0.5, 0.1]","[0.8, 0.4, 0.2]","[u'black', u'blue', u'red']","[u'left', u'middle', u'right']","[0.8, 0.4, 0.2]","[u'high', u'low', u'medium']","blue",50,"middle","low","False","False",65,7100,NA
"A2NAKIXS3DVGAA","Thu Oct 01 2020 13:19:13 GMT-0400 (Eastern Daylight Time)","Thu Oct 01 2020 13:25:24 GMT-0400 (Eastern Daylight Time)","Mozilla/5.0 (X11; Linux x86_64; rv:78.0) Gecko/20100101 Firefox/78.0",135,"[0.9, 0.5, 0.1]","[0.8, 0.4, 0.2]","[u'black', u'blue', u'red']","[u'left', u'middle', u'right']","[0.8, 0.4, 0.2]","[u'high', u'low', u'medium']","blue",50,"middle","low","False","False",465,7050,NA
"A2NAKIXS3DVGAA","Thu Oct 01 2020 13:19:13 GMT-0400 (Eastern Daylight Time)","Thu Oct 01 2020 13:25:24 GMT-0400 (Eastern Daylight Time)","Mozilla/5.0 (X11; Linux x86_64; rv:78.0) Gecko/20100101 Firefox/78.0",136,"[0.9, 0.5, 0.1]","[0.8, 0.4, 0.2]","[u'black', u'blue', u'red']","[u'left', u'middle', u'right']","[0.8, 0.4, 0.2]","[u'high', u'low', u'medium']","black",49,"left","high","True","False",122,7150,NA
"A2NAKIXS3DVGAA","Thu Oct 01 2020 13:19:13 GMT-0400 (Eastern Daylight Time)","Thu Oct 01 2020 13:25:24 GMT-0400 (Eastern Daylight Time)","Mozilla/5.0 (X11; Linux x86_64; rv:78.0) Gecko/20100101 Firefox/78.0",137,"[0.9, 0.5, 0.1]","[0.8, 0.4, 0.2]","[u'black', u'blue', u'red']","[u'left', u'middle', u'right']","[0.8, 0.4, 0.2]","[u'high', u'low', u'medium']","black",49,"left","high","True","False",109,7250,NA
"A2NAKIXS3DVGAA","Thu Oct 01 2020 13:19:13 GMT-0400 (Eastern Daylight Time)","Thu Oct 01 2020 13:25:24 GMT-0400 (Eastern Daylight Time)","Mozilla/5.0 (X11; Linux x86_64; rv:78.0) Gecko/20100101 Firefox/78.0",138,"[0.9, 0.5, 0.1]","[0.8, 0.4, 0.2]","[u'black', u'blue', u'red']","[u'left', u'middle', u'right']","[0.8, 0.4, 0.2]","[u'high', u'low', u'medium']","black",49,"left","high","True","False",61,7350,NA
"A2NAKIXS3DVGAA","Thu Oct 01 2020 13:19:13 GMT-0400 (Eastern Daylight Time)","Thu Oct 01 2020 13:25:24 GMT-0400 (Eastern Daylight Time)","Mozilla/5.0 (X11; Linux x86_64; rv:78.0) Gecko/20100101 Firefox/78.0",139,"[0.9, 0.5, 0.1]","[0.8, 0.4, 0.2]","[u'black', u'blue', u'red']","[u'left', u'middle', u'right']","[0.8, 0.4, 0.2]","[u'high', u'low', u'medium']","black",49,"left","high","True","False",76,7450,NA
"A2NAKIXS3DVGAA","Thu Oct 01 2020 13:19:13 GMT-0400 (Eastern Daylight Time)","Thu Oct 01 2020 13:25:24 GMT-0400 (Eastern Daylight Time)","Mozilla/5.0 (X11; Linux x86_64; rv:78.0) Gecko/20100101 Firefox/78.0",140,"[0.9, 0.5, 0.1]","[0.8, 0.4, 0.2]","[u'black', u'blue', u'red']","[u'left', u'middle', u'right']","[0.8, 0.4, 0.2]","[u'high', u'low', u'medium']","black",49,"left","high","False","False",42,7400,NA
"A2NAKIXS3DVGAA","Thu Oct 01 2020 13:19:13 GMT-0400 (Eastern Daylight Time)","Thu Oct 01 2020 13:25:24 GMT-0400 (Eastern Daylight Time)","Mozilla/5.0 (X11; Linux x86_64; rv:78.0) Gecko/20100101 Firefox/78.0",141,"[0.9, 0.5, 0.1]","[0.8, 0.4, 0.2]","[u'black', u'blue', u'red']","[u'left', u'middle', u'right']","[0.8, 0.4, 0.2]","[u'high', u'low', u'medium']","black",49,"left","high","False","False",27,7350,NA
"A2NAKIXS3DVGAA","Thu Oct 01 2020 13:19:13 GMT-0400 (Eastern Daylight Time)","Thu Oct 01 2020 13:25:24 GMT-0400 (Eastern Daylight Time)","Mozilla/5.0 (X11; Linux x86_64; rv:78.0) Gecko/20100101 Firefox/78.0",142,"[0.9, 0.5, 0.1]","[0.8, 0.4, 0.2]","[u'black', u'blue', u'red']","[u'left', u'middle', u'right']","[0.8, 0.4, 0.2]","[u'high', u'low', u'medium']","red",51,"right","medium","False","False",14,7300,NA
"A2NAKIXS3DVGAA","Thu Oct 01 2020 13:19:13 GMT-0400 (Eastern Daylight Time)","Thu Oct 01 2020 13:25:24 GMT-0400 (Eastern Daylight Time)","Mozilla/5.0 (X11; Linux x86_64; rv:78.0) Gecko/20100101 Firefox/78.0",143,"[0.9, 0.5, 0.1]","[0.8, 0.4, 0.2]","[u'black', u'blue', u'red']","[u'left', u'middle', u'right']","[0.8, 0.4, 0.2]","[u'high', u'low', u'medium']","blue",50,"middle","low","True","False",391,7400,NA
"A2NAKIXS3DVGAA","Thu Oct 01 2020 13:19:13 GMT-0400 (Eastern Daylight Time)","Thu Oct 01 2020 13:25:24 GMT-0400 (Eastern Daylight Time)","Mozilla/5.0 (X11; Linux x86_64; rv:78.0) Gecko/20100101 Firefox/78.0",144,"[0.9, 0.5, 0.1]","[0.8, 0.4, 0.2]","[u'black', u'blue', u'red']","[u'left', u'middle', u'right']","[0.8, 0.4, 0.2]","[u'high', u'low', u'medium']","blue",50,"middle","low","False","False",158,7350,NA
"A2NAKIXS3DVGAA","Thu Oct 01 2020 13:19:13 GMT-0400 (Eastern Daylight Time)","Thu Oct 01 2020 13:25:24 GMT-0400 (Eastern Daylight Time)","Mozilla/5.0 (X11; Linux x86_64; rv:78.0) Gecko/20100101 Firefox/78.0",145,"[0.9, 0.5, 0.1]","[0.8, 0.4, 0.2]","[u'black', u'blue', u'red']","[u'left', u'middle', u'right']","[0.8, 0.4, 0.2]","[u'high', u'low', u'medium']","blue",50,"middle","low","False","False",171,7300,NA
"A2NAKIXS3DVGAA","Thu Oct 01 2020 13:19:13 GMT-0400 (Eastern Daylight Time)","Thu Oct 01 2020 13:25:24 GMT-0400 (Eastern Daylight Time)","Mozilla/5.0 (X11; Linux x86_64; rv:78.0) Gecko/20100101 Firefox/78.0",146,"[0.9, 0.5, 0.1]","[0.8, 0.4, 0.2]","[u'black', u'blue', u'red']","[u'left', u'middle', u'right']","[0.8, 0.4, 0.2]","[u'high', u'low', u'medium']","black",49,"left","high","False","False",42,7250,NA
"A2NAKIXS3DVGAA","Thu Oct 01 2020 13:19:13 GMT-0400 (Eastern Daylight Time)","Thu Oct 01 2020 13:25:24 GMT-0400 (Eastern Daylight Time)","Mozilla/5.0 (X11; Linux x86_64; rv:78.0) Gecko/20100101 Firefox/78.0",147,"[0.9, 0.5, 0.1]","[0.8, 0.4, 0.2]","[u'black', u'blue', u'red']","[u'left', u'middle', u'right']","[0.8, 0.4, 0.2]","[u'high', u'low', u'medium']","red",51,"right","medium","False","False",24,7200,NA
"A2NAKIXS3DVGAA","Thu Oct 01 2020 13:19:13 GMT-0400 (Eastern Daylight Time)","Thu Oct 01 2020 13:25:24 GMT-0400 (Eastern Daylight Time)","Mozilla/5.0 (X11; Linux x86_64; rv:78.0) Gecko/20100101 Firefox/78.0",148,"[0.9, 0.5, 0.1]","[0.8, 0.4, 0.2]","[u'black', u'blue', u'red']","[u'left', u'middle', u'right']","[0.8, 0.4, 0.2]","[u'high', u'low', u'medium']","blue",50,"middle","low","True","False",203,7300,NA
"A2NAKIXS3DVGAA","Thu Oct 01 2020 13:19:13 GMT-0400 (Eastern Daylight Time)","Thu Oct 01 2020 13:25:24 GMT-0400 (Eastern Daylight Time)","Mozilla/5.0 (X11; Linux x86_64; rv:78.0) Gecko/20100101 Firefox/78.0",149,"[0.9, 0.5, 0.1]","[0.8, 0.4, 0.2]","[u'black', u'blue', u'red']","[u'left', u'middle', u'right']","[0.8, 0.4, 0.2]","[u'high', u'low', u'medium']","blue",50,"middle","low","False","False",12,7250,NA
"A2NAKIXS3DVGAA","Thu Oct 01 2020 13:19:13 GMT-0400 (Eastern Daylight Time)","Thu Oct 01 2020 13:25:24 GMT-0400 (Eastern Daylight Time)","Mozilla/5.0 (X11; Linux x86_64; rv:78.0) Gecko/20100101 Firefox/78.0",150,"[0.9, 0.5, 0.1]","[0.8, 0.4, 0.2]","[u'black', u'blue', u'red']","[u'left', u'middle', u'right']","[0.8, 0.4, 0.2]","[u'high', u'low', u'medium']","blue",50,"middle","low","False","False",45,7200,NA
"A2NAKIXS3DVGAA","Thu Oct 01 2020 13:19:13 GMT-0400 (Eastern Daylight Time)","Thu Oct 01 2020 13:25:24 GMT-0400 (Eastern Daylight Time)","Mozilla/5.0 (X11; Linux x86_64; rv:78.0) Gecko/20100101 Firefox/78.0",151,"[0.9, 0.5, 0.1]","[0.8, 0.4, 0.2]","[u'black', u'blue', u'red']","[u'left', u'middle', u'right']","[0.8, 0.4, 0.2]","[u'high', u'low', u'medium']","black",49,"left","high","True","False",149,7300,NA
"A2NAKIXS3DVGAA","Thu Oct 01 2020 13:19:13 GMT-0400 (Eastern Daylight Time)","Thu Oct 01 2020 13:25:24 GMT-0400 (Eastern Daylight Time)","Mozilla/5.0 (X11; Linux x86_64; rv:78.0) Gecko/20100101 Firefox/78.0",152,"[0.9, 0.5, 0.1]","[0.8, 0.4, 0.2]","[u'black', u'blue', u'red']","[u'left', u'middle', u'right']","[0.8, 0.4, 0.2]","[u'high', u'low', u'medium']","black",49,"left","high","True","False",91,7400,NA
"A2NAKIXS3DVGAA","Thu Oct 01 2020 13:19:13 GMT-0400 (Eastern Daylight Time)","Thu Oct 01 2020 13:25:24 GMT-0400 (Eastern Daylight Time)","Mozilla/5.0 (X11; Linux x86_64; rv:78.0) Gecko/20100101 Firefox/78.0",153,"[0.9, 0.5, 0.1]","[0.8, 0.4, 0.2]","[u'black', u'blue', u'red']","[u'left', u'middle', u'right']","[0.8, 0.4, 0.2]","[u'high', u'low', u'medium']","black",49,"left","high","True","False",40,7500,NA
"A2NAKIXS3DVGAA","Thu Oct 01 2020 13:19:13 GMT-0400 (Eastern Daylight Time)","Thu Oct 01 2020 13:25:24 GMT-0400 (Eastern Daylight Time)","Mozilla/5.0 (X11; Linux x86_64; rv:78.0) Gecko/20100101 Firefox/78.0",154,"[0.9, 0.5, 0.1]","[0.8, 0.4, 0.2]","[u'black', u'blue', u'red']","[u'left', u'middle', u'right']","[0.8, 0.4, 0.2]","[u'high', u'low', u'medium']","black",49,"left","high","True","False",119,7600,NA
"A2NAKIXS3DVGAA","Thu Oct 01 2020 13:19:13 GMT-0400 (Eastern Daylight Time)","Thu Oct 01 2020 13:25:24 GMT-0400 (Eastern Daylight Time)","Mozilla/5.0 (X11; Linux x86_64; rv:78.0) Gecko/20100101 Firefox/78.0",155,"[0.9, 0.5, 0.1]","[0.8, 0.4, 0.2]","[u'black', u'blue', u'red']","[u'left', u'middle', u'right']","[0.8, 0.4, 0.2]","[u'high', u'low', u'medium']","black",49,"left","high","True","False",93,7700,NA
"A2NAKIXS3DVGAA","Thu Oct 01 2020 13:19:13 GMT-0400 (Eastern Daylight Time)","Thu Oct 01 2020 13:25:24 GMT-0400 (Eastern Daylight Time)","Mozilla/5.0 (X11; Linux x86_64; rv:78.0) Gecko/20100101 Firefox/78.0",156,"[0.9, 0.5, 0.1]","[0.8, 0.4, 0.2]","[u'black', u'blue', u'red']","[u'left', u'middle', u'right']","[0.8, 0.4, 0.2]","[u'high', u'low', u'medium']","black",49,"left","high","True","False",170,7800,NA
"A2NAKIXS3DVGAA","Thu Oct 01 2020 13:19:13 GMT-0400 (Eastern Daylight Time)","Thu Oct 01 2020 13:25:24 GMT-0400 (Eastern Daylight Time)","Mozilla/5.0 (X11; Linux x86_64; rv:78.0) Gecko/20100101 Firefox/78.0",157,"[0.9, 0.5, 0.1]","[0.8, 0.4, 0.2]","[u'black', u'blue', u'red']","[u'left', u'middle', u'right']","[0.8, 0.4, 0.2]","[u'high', u'low', u'medium']","black",49,"left","high","True","False",6,7900,NA
"A2NAKIXS3DVGAA","Thu Oct 01 2020 13:19:13 GMT-0400 (Eastern Daylight Time)","Thu Oct 01 2020 13:25:24 GMT-0400 (Eastern Daylight Time)","Mozilla/5.0 (X11; Linux x86_64; rv:78.0) Gecko/20100101 Firefox/78.0",158,"[0.9, 0.5, 0.1]","[0.8, 0.4, 0.2]","[u'black', u'blue', u'red']","[u'left', u'middle', u'right']","[0.8, 0.4, 0.2]","[u'high', u'low', u'medium']","black",49,"left","high","True","False",146,8000,NA
"A2NAKIXS3DVGAA","Thu Oct 01 2020 13:19:13 GMT-0400 (Eastern Daylight Time)","Thu Oct 01 2020 13:25:24 GMT-0400 (Eastern Daylight Time)","Mozilla/5.0 (X11; Linux x86_64; rv:78.0) Gecko/20100101 Firefox/78.0",159,"[0.9, 0.5, 0.1]","[0.8, 0.4, 0.2]","[u'black', u'blue', u'red']","[u'left', u'middle', u'right']","[0.8, 0.4, 0.2]","[u'high', u'low', u'medium']","black",49,"left","high","True","True",93,8100,NA
"A2NAKIXS3DVGAA","Thu Oct 01 2020 13:19:13 GMT-0400 (Eastern Daylight Time)","Thu Oct 01 2020 13:25:24 GMT-0400 (Eastern Daylight Time)","Mozilla/5.0 (X11; Linux x86_64; rv:78.0) Gecko/20100101 Firefox/78.0",160,"[0.9, 0.5, 0.1]","[0.8, 0.4, 0.2]","[u'black', u'blue', u'red']","[u'left', u'middle', u'right']","[0.8, 0.4, 0.2]","[u'low', u'high', u'medium']","black",49,"left","low","False","False",74,8050,NA
