"src_subject_id","start_time","end_time","browser","index","first_half_probabilities","second_half_probabilities","deck_color","deck_position","deck_probabilities","deck_contingencies","response_color","key_press","response_position","response_probability","reward_type","trial_type","rt","reward_tally","exclusion_reason"
"AW0XXNPFHP7XD","Thu Oct 01 2020 08:43:14 GMT-0700 (Pacific Daylight Time)","Thu Oct 01 2020 08:50:17 GMT-0700 (Pacific Daylight Time)","Mozilla/5.0 (Windows NT 6.1; Win64; x64) AppleWebKit/537.36 (KHTML, like Gecko) Chrome/85.0.4183.121 Safari/537.36",1,"[0.9, 0.5, 0.1]","[0.8, 0.4, 0.2]","[u'black', u'red', u'blue']","[u'left', u'middle', u'right']","[0.9, 0.5, 0.1]","[u'medium', u'low', u'high']","black",49,"left","medium","False","False",842,-50,NA
"AW0XXNPFHP7XD","Thu Oct 01 2020 08:43:14 GMT-0700 (Pacific Daylight Time)","Thu Oct 01 2020 08:50:17 GMT-0700 (Pacific Daylight Time)","Mozilla/5.0 (Windows NT 6.1; Win64; x64) AppleWebKit/537.36 (KHTML, like Gecko) Chrome/85.0.4183.121 Safari/537.36",2,"[0.9, 0.5, 0.1]","[0.8, 0.4, 0.2]","[u'black', u'red', u'blue']","[u'left', u'middle', u'right']","[0.9, 0.5, 0.1]","[u'medium', u'low', u'high']","red",50,"middle","low","False","False",379,-100,NA
"AW0XXNPFHP7XD","Thu Oct 01 2020 08:43:14 GMT-0700 (Pacific Daylight Time)","Thu Oct 01 2020 08:50:17 GMT-0700 (Pacific Daylight Time)","Mozilla/5.0 (Windows NT 6.1; Win64; x64) AppleWebKit/537.36 (KHTML, like Gecko) Chrome/85.0.4183.121 Safari/537.36",3,"[0.9, 0.5, 0.1]","[0.8, 0.4, 0.2]","[u'black', u'red', u'blue']","[u'left', u'middle', u'right']","[0.9, 0.5, 0.1]","[u'medium', u'low', u'high']","blue",51,"right","high","True","False",323,0,NA
"AW0XXNPFHP7XD","Thu Oct 01 2020 08:43:14 GMT-0700 (Pacific Daylight Time)","Thu Oct 01 2020 08:50:17 GMT-0700 (Pacific Daylight Time)","Mozilla/5.0 (Windows NT 6.1; Win64; x64) AppleWebKit/537.36 (KHTML, like Gecko) Chrome/85.0.4183.121 Safari/537.36",4,"[0.9, 0.5, 0.1]","[0.8, 0.4, 0.2]","[u'black', u'red', u'blue']","[u'left', u'middle', u'right']","[0.9, 0.5, 0.1]","[u'medium', u'low', u'high']","blue",51,"right","high","True","False",384,100,NA
"AW0XXNPFHP7XD","Thu Oct 01 2020 08:43:14 GMT-0700 (Pacific Daylight Time)","Thu Oct 01 2020 08:50:17 GMT-0700 (Pacific Daylight Time)","Mozilla/5.0 (Windows NT 6.1; Win64; x64) AppleWebKit/537.36 (KHTML, like Gecko) Chrome/85.0.4183.121 Safari/537.36",5,"[0.9, 0.5, 0.1]","[0.8, 0.4, 0.2]","[u'black', u'red', u'blue']","[u'left', u'middle', u'right']","[0.9, 0.5, 0.1]","[u'medium', u'low', u'high']","blue",51,"right","high","True","False",371,200,NA
"AW0XXNPFHP7XD","Thu Oct 01 2020 08:43:14 GMT-0700 (Pacific Daylight Time)","Thu Oct 01 2020 08:50:17 GMT-0700 (Pacific Daylight Time)","Mozilla/5.0 (Windows NT 6.1; Win64; x64) AppleWebKit/537.36 (KHTML, like Gecko) Chrome/85.0.4183.121 Safari/537.36",6,"[0.9, 0.5, 0.1]","[0.8, 0.4, 0.2]","[u'black', u'red', u'blue']","[u'left', u'middle', u'right']","[0.9, 0.5, 0.1]","[u'medium', u'low', u'high']","blue",51,"right","high","True","False",380,300,NA
"AW0XXNPFHP7XD","Thu Oct 01 2020 08:43:14 GMT-0700 (Pacific Daylight Time)","Thu Oct 01 2020 08:50:17 GMT-0700 (Pacific Daylight Time)","Mozilla/5.0 (Windows NT 6.1; Win64; x64) AppleWebKit/537.36 (KHTML, like Gecko) Chrome/85.0.4183.121 Safari/537.36",7,"[0.9, 0.5, 0.1]","[0.8, 0.4, 0.2]","[u'black', u'red', u'blue']","[u'left', u'middle', u'right']","[0.9, 0.5, 0.1]","[u'medium', u'low', u'high']","blue",51,"right","high","True","False",346,400,NA
"AW0XXNPFHP7XD","Thu Oct 01 2020 08:43:14 GMT-0700 (Pacific Daylight Time)","Thu Oct 01 2020 08:50:17 GMT-0700 (Pacific Daylight Time)","Mozilla/5.0 (Windows NT 6.1; Win64; x64) AppleWebKit/537.36 (KHTML, like Gecko) Chrome/85.0.4183.121 Safari/537.36",8,"[0.9, 0.5, 0.1]","[0.8, 0.4, 0.2]","[u'black', u'red', u'blue']","[u'left', u'middle', u'right']","[0.9, 0.5, 0.1]","[u'medium', u'low', u'high']","blue",51,"right","high","True","False",319,500,NA
"AW0XXNPFHP7XD","Thu Oct 01 2020 08:43:14 GMT-0700 (Pacific Daylight Time)","Thu Oct 01 2020 08:50:17 GMT-0700 (Pacific Daylight Time)","Mozilla/5.0 (Windows NT 6.1; Win64; x64) AppleWebKit/537.36 (KHTML, like Gecko) Chrome/85.0.4183.121 Safari/537.36",9,"[0.9, 0.5, 0.1]","[0.8, 0.4, 0.2]","[u'black', u'red', u'blue']","[u'left', u'middle', u'right']","[0.9, 0.5, 0.1]","[u'medium', u'low', u'high']","blue",51,"right","high","True","False",291,600,NA
"AW0XXNPFHP7XD","Thu Oct 01 2020 08:43:14 GMT-0700 (Pacific Daylight Time)","Thu Oct 01 2020 08:50:17 GMT-0700 (Pacific Daylight Time)","Mozilla/5.0 (Windows NT 6.1; Win64; x64) AppleWebKit/537.36 (KHTML, like Gecko) Chrome/85.0.4183.121 Safari/537.36",10,"[0.9, 0.5, 0.1]","[0.8, 0.4, 0.2]","[u'black', u'red', u'blue']","[u'left', u'middle', u'right']","[0.9, 0.5, 0.1]","[u'medium', u'low', u'high']","blue",51,"right","high","True","False",395,700,NA
"AW0XXNPFHP7XD","Thu Oct 01 2020 08:43:14 GMT-0700 (Pacific Daylight Time)","Thu Oct 01 2020 08:50:17 GMT-0700 (Pacific Daylight Time)","Mozilla/5.0 (Windows NT 6.1; Win64; x64) AppleWebKit/537.36 (KHTML, like Gecko) Chrome/85.0.4183.121 Safari/537.36",11,"[0.9, 0.5, 0.1]","[0.8, 0.4, 0.2]","[u'black', u'red', u'blue']","[u'left', u'middle', u'right']","[0.9, 0.5, 0.1]","[u'medium', u'low', u'high']","blue",51,"right","high","False","True",339,650,NA
"AW0XXNPFHP7XD","Thu Oct 01 2020 08:43:14 GMT-0700 (Pacific Daylight Time)","Thu Oct 01 2020 08:50:17 GMT-0700 (Pacific Daylight Time)","Mozilla/5.0 (Windows NT 6.1; Win64; x64) AppleWebKit/537.36 (KHTML, like Gecko) Chrome/85.0.4183.121 Safari/537.36",12,"[0.9, 0.5, 0.1]","[0.8, 0.4, 0.2]","[u'black', u'red', u'blue']","[u'left', u'middle', u'right']","[0.9, 0.5, 0.1]","[u'low', u'high', u'medium']","red",50,"middle","high","True","False",355,750,NA
"AW0XXNPFHP7XD","Thu Oct 01 2020 08:43:14 GMT-0700 (Pacific Daylight Time)","Thu Oct 01 2020 08:50:17 GMT-0700 (Pacific Daylight Time)","Mozilla/5.0 (Windows NT 6.1; Win64; x64) AppleWebKit/537.36 (KHTML, like Gecko) Chrome/85.0.4183.121 Safari/537.36",13,"[0.9, 0.5, 0.1]","[0.8, 0.4, 0.2]","[u'black', u'red', u'blue']","[u'left', u'middle', u'right']","[0.9, 0.5, 0.1]","[u'low', u'high', u'medium']","red",50,"middle","high","True","False",346,850,NA
"AW0XXNPFHP7XD","Thu Oct 01 2020 08:43:14 GMT-0700 (Pacific Daylight Time)","Thu Oct 01 2020 08:50:17 GMT-0700 (Pacific Daylight Time)","Mozilla/5.0 (Windows NT 6.1; Win64; x64) AppleWebKit/537.36 (KHTML, like Gecko) Chrome/85.0.4183.121 Safari/537.36",14,"[0.9, 0.5, 0.1]","[0.8, 0.4, 0.2]","[u'black', u'red', u'blue']","[u'left', u'middle', u'right']","[0.9, 0.5, 0.1]","[u'low', u'high', u'medium']","red",50,"middle","high","True","False",343,950,NA
"AW0XXNPFHP7XD","Thu Oct 01 2020 08:43:14 GMT-0700 (Pacific Daylight Time)","Thu Oct 01 2020 08:50:17 GMT-0700 (Pacific Daylight Time)","Mozilla/5.0 (Windows NT 6.1; Win64; x64) AppleWebKit/537.36 (KHTML, like Gecko) Chrome/85.0.4183.121 Safari/537.36",15,"[0.9, 0.5, 0.1]","[0.8, 0.4, 0.2]","[u'black', u'red', u'blue']","[u'left', u'middle', u'right']","[0.9, 0.5, 0.1]","[u'low', u'high', u'medium']","red",50,"middle","high","True","False",363,1050,NA
"AW0XXNPFHP7XD","Thu Oct 01 2020 08:43:14 GMT-0700 (Pacific Daylight Time)","Thu Oct 01 2020 08:50:17 GMT-0700 (Pacific Daylight Time)","Mozilla/5.0 (Windows NT 6.1; Win64; x64) AppleWebKit/537.36 (KHTML, like Gecko) Chrome/85.0.4183.121 Safari/537.36",16,"[0.9, 0.5, 0.1]","[0.8, 0.4, 0.2]","[u'black', u'red', u'blue']","[u'left', u'middle', u'right']","[0.9, 0.5, 0.1]","[u'low', u'high', u'medium']","red",50,"middle","high","True","False",323,1150,NA
"AW0XXNPFHP7XD","Thu Oct 01 2020 08:43:14 GMT-0700 (Pacific Daylight Time)","Thu Oct 01 2020 08:50:17 GMT-0700 (Pacific Daylight Time)","Mozilla/5.0 (Windows NT 6.1; Win64; x64) AppleWebKit/537.36 (KHTML, like Gecko) Chrome/85.0.4183.121 Safari/537.36",17,"[0.9, 0.5, 0.1]","[0.8, 0.4, 0.2]","[u'black', u'red', u'blue']","[u'left', u'middle', u'right']","[0.9, 0.5, 0.1]","[u'low', u'high', u'medium']","red",50,"middle","high","True","False",290,1250,NA
"AW0XXNPFHP7XD","Thu Oct 01 2020 08:43:14 GMT-0700 (Pacific Daylight Time)","Thu Oct 01 2020 08:50:17 GMT-0700 (Pacific Daylight Time)","Mozilla/5.0 (Windows NT 6.1; Win64; x64) AppleWebKit/537.36 (KHTML, like Gecko) Chrome/85.0.4183.121 Safari/537.36",18,"[0.9, 0.5, 0.1]","[0.8, 0.4, 0.2]","[u'black', u'red', u'blue']","[u'left', u'middle', u'right']","[0.9, 0.5, 0.1]","[u'low', u'high', u'medium']","red",50,"middle","high","True","False",268,1350,NA
"AW0XXNPFHP7XD","Thu Oct 01 2020 08:43:14 GMT-0700 (Pacific Daylight Time)","Thu Oct 01 2020 08:50:17 GMT-0700 (Pacific Daylight Time)","Mozilla/5.0 (Windows NT 6.1; Win64; x64) AppleWebKit/537.36 (KHTML, like Gecko) Chrome/85.0.4183.121 Safari/537.36",19,"[0.9, 0.5, 0.1]","[0.8, 0.4, 0.2]","[u'black', u'red', u'blue']","[u'left', u'middle', u'right']","[0.9, 0.5, 0.1]","[u'low', u'high', u'medium']","red",50,"middle","high","True","False",273,1450,NA
"AW0XXNPFHP7XD","Thu Oct 01 2020 08:43:14 GMT-0700 (Pacific Daylight Time)","Thu Oct 01 2020 08:50:17 GMT-0700 (Pacific Daylight Time)","Mozilla/5.0 (Windows NT 6.1; Win64; x64) AppleWebKit/537.36 (KHTML, like Gecko) Chrome/85.0.4183.121 Safari/537.36",20,"[0.9, 0.5, 0.1]","[0.8, 0.4, 0.2]","[u'black', u'red', u'blue']","[u'left', u'middle', u'right']","[0.9, 0.5, 0.1]","[u'low', u'high', u'medium']","red",50,"middle","high","False","True",306,1400,NA
"AW0XXNPFHP7XD","Thu Oct 01 2020 08:43:14 GMT-0700 (Pacific Daylight Time)","Thu Oct 01 2020 08:50:17 GMT-0700 (Pacific Daylight Time)","Mozilla/5.0 (Windows NT 6.1; Win64; x64) AppleWebKit/537.36 (KHTML, like Gecko) Chrome/85.0.4183.121 Safari/537.36",21,"[0.9, 0.5, 0.1]","[0.8, 0.4, 0.2]","[u'black', u'red', u'blue']","[u'left', u'middle', u'right']","[0.9, 0.5, 0.1]","[u'high', u'low', u'medium']","black",49,"left","high","True","False",275,1500,NA
"AW0XXNPFHP7XD","Thu Oct 01 2020 08:43:14 GMT-0700 (Pacific Daylight Time)","Thu Oct 01 2020 08:50:17 GMT-0700 (Pacific Daylight Time)","Mozilla/5.0 (Windows NT 6.1; Win64; x64) AppleWebKit/537.36 (KHTML, like Gecko) Chrome/85.0.4183.121 Safari/537.36",22,"[0.9, 0.5, 0.1]","[0.8, 0.4, 0.2]","[u'black', u'red', u'blue']","[u'left', u'middle', u'right']","[0.9, 0.5, 0.1]","[u'high', u'low', u'medium']","black",49,"left","high","True","False",235,1600,NA
"AW0XXNPFHP7XD","Thu Oct 01 2020 08:43:14 GMT-0700 (Pacific Daylight Time)","Thu Oct 01 2020 08:50:17 GMT-0700 (Pacific Daylight Time)","Mozilla/5.0 (Windows NT 6.1; Win64; x64) AppleWebKit/537.36 (KHTML, like Gecko) Chrome/85.0.4183.121 Safari/537.36",23,"[0.9, 0.5, 0.1]","[0.8, 0.4, 0.2]","[u'black', u'red', u'blue']","[u'left', u'middle', u'right']","[0.9, 0.5, 0.1]","[u'high', u'low', u'medium']","black",49,"left","high","True","False",275,1700,NA
"AW0XXNPFHP7XD","Thu Oct 01 2020 08:43:14 GMT-0700 (Pacific Daylight Time)","Thu Oct 01 2020 08:50:17 GMT-0700 (Pacific Daylight Time)","Mozilla/5.0 (Windows NT 6.1; Win64; x64) AppleWebKit/537.36 (KHTML, like Gecko) Chrome/85.0.4183.121 Safari/537.36",24,"[0.9, 0.5, 0.1]","[0.8, 0.4, 0.2]","[u'black', u'red', u'blue']","[u'left', u'middle', u'right']","[0.9, 0.5, 0.1]","[u'high', u'low', u'medium']","black",49,"left","high","True","False",244,1800,NA
"AW0XXNPFHP7XD","Thu Oct 01 2020 08:43:14 GMT-0700 (Pacific Daylight Time)","Thu Oct 01 2020 08:50:17 GMT-0700 (Pacific Daylight Time)","Mozilla/5.0 (Windows NT 6.1; Win64; x64) AppleWebKit/537.36 (KHTML, like Gecko) Chrome/85.0.4183.121 Safari/537.36",25,"[0.9, 0.5, 0.1]","[0.8, 0.4, 0.2]","[u'black', u'red', u'blue']","[u'left', u'middle', u'right']","[0.9, 0.5, 0.1]","[u'high', u'low', u'medium']","black",49,"left","high","True","False",329,1900,NA
"AW0XXNPFHP7XD","Thu Oct 01 2020 08:43:14 GMT-0700 (Pacific Daylight Time)","Thu Oct 01 2020 08:50:17 GMT-0700 (Pacific Daylight Time)","Mozilla/5.0 (Windows NT 6.1; Win64; x64) AppleWebKit/537.36 (KHTML, like Gecko) Chrome/85.0.4183.121 Safari/537.36",26,"[0.9, 0.5, 0.1]","[0.8, 0.4, 0.2]","[u'black', u'red', u'blue']","[u'left', u'middle', u'right']","[0.9, 0.5, 0.1]","[u'high', u'low', u'medium']","black",49,"left","high","True","False",337,2000,NA
"AW0XXNPFHP7XD","Thu Oct 01 2020 08:43:14 GMT-0700 (Pacific Daylight Time)","Thu Oct 01 2020 08:50:17 GMT-0700 (Pacific Daylight Time)","Mozilla/5.0 (Windows NT 6.1; Win64; x64) AppleWebKit/537.36 (KHTML, like Gecko) Chrome/85.0.4183.121 Safari/537.36",27,"[0.9, 0.5, 0.1]","[0.8, 0.4, 0.2]","[u'black', u'red', u'blue']","[u'left', u'middle', u'right']","[0.9, 0.5, 0.1]","[u'high', u'low', u'medium']","black",49,"left","high","True","False",322,2100,NA
"AW0XXNPFHP7XD","Thu Oct 01 2020 08:43:14 GMT-0700 (Pacific Daylight Time)","Thu Oct 01 2020 08:50:17 GMT-0700 (Pacific Daylight Time)","Mozilla/5.0 (Windows NT 6.1; Win64; x64) AppleWebKit/537.36 (KHTML, like Gecko) Chrome/85.0.4183.121 Safari/537.36",28,"[0.9, 0.5, 0.1]","[0.8, 0.4, 0.2]","[u'black', u'red', u'blue']","[u'left', u'middle', u'right']","[0.9, 0.5, 0.1]","[u'high', u'low', u'medium']","black",49,"left","high","True","False",267,2200,NA
"AW0XXNPFHP7XD","Thu Oct 01 2020 08:43:14 GMT-0700 (Pacific Daylight Time)","Thu Oct 01 2020 08:50:17 GMT-0700 (Pacific Daylight Time)","Mozilla/5.0 (Windows NT 6.1; Win64; x64) AppleWebKit/537.36 (KHTML, like Gecko) Chrome/85.0.4183.121 Safari/537.36",29,"[0.9, 0.5, 0.1]","[0.8, 0.4, 0.2]","[u'black', u'red', u'blue']","[u'left', u'middle', u'right']","[0.9, 0.5, 0.1]","[u'high', u'low', u'medium']","black",49,"left","high","True","True",295,2300,NA
"AW0XXNPFHP7XD","Thu Oct 01 2020 08:43:14 GMT-0700 (Pacific Daylight Time)","Thu Oct 01 2020 08:50:17 GMT-0700 (Pacific Daylight Time)","Mozilla/5.0 (Windows NT 6.1; Win64; x64) AppleWebKit/537.36 (KHTML, like Gecko) Chrome/85.0.4183.121 Safari/537.36",30,"[0.9, 0.5, 0.1]","[0.8, 0.4, 0.2]","[u'black', u'red', u'blue']","[u'left', u'middle', u'right']","[0.9, 0.5, 0.1]","[u'low', u'high', u'medium']","black",49,"left","low","False","False",280,2250,NA
"AW0XXNPFHP7XD","Thu Oct 01 2020 08:43:14 GMT-0700 (Pacific Daylight Time)","Thu Oct 01 2020 08:50:17 GMT-0700 (Pacific Daylight Time)","Mozilla/5.0 (Windows NT 6.1; Win64; x64) AppleWebKit/537.36 (KHTML, like Gecko) Chrome/85.0.4183.121 Safari/537.36",31,"[0.9, 0.5, 0.1]","[0.8, 0.4, 0.2]","[u'black', u'red', u'blue']","[u'left', u'middle', u'right']","[0.9, 0.5, 0.1]","[u'low', u'high', u'medium']","blue",51,"right","medium","True","False",282,2350,NA
"AW0XXNPFHP7XD","Thu Oct 01 2020 08:43:14 GMT-0700 (Pacific Daylight Time)","Thu Oct 01 2020 08:50:17 GMT-0700 (Pacific Daylight Time)","Mozilla/5.0 (Windows NT 6.1; Win64; x64) AppleWebKit/537.36 (KHTML, like Gecko) Chrome/85.0.4183.121 Safari/537.36",32,"[0.9, 0.5, 0.1]","[0.8, 0.4, 0.2]","[u'black', u'red', u'blue']","[u'left', u'middle', u'right']","[0.9, 0.5, 0.1]","[u'low', u'high', u'medium']","blue",51,"right","medium","False","False",233,2300,NA
"AW0XXNPFHP7XD","Thu Oct 01 2020 08:43:14 GMT-0700 (Pacific Daylight Time)","Thu Oct 01 2020 08:50:17 GMT-0700 (Pacific Daylight Time)","Mozilla/5.0 (Windows NT 6.1; Win64; x64) AppleWebKit/537.36 (KHTML, like Gecko) Chrome/85.0.4183.121 Safari/537.36",33,"[0.9, 0.5, 0.1]","[0.8, 0.4, 0.2]","[u'black', u'red', u'blue']","[u'left', u'middle', u'right']","[0.9, 0.5, 0.1]","[u'low', u'high', u'medium']","red",50,"middle","high","True","False",283,2400,NA
"AW0XXNPFHP7XD","Thu Oct 01 2020 08:43:14 GMT-0700 (Pacific Daylight Time)","Thu Oct 01 2020 08:50:17 GMT-0700 (Pacific Daylight Time)","Mozilla/5.0 (Windows NT 6.1; Win64; x64) AppleWebKit/537.36 (KHTML, like Gecko) Chrome/85.0.4183.121 Safari/537.36",34,"[0.9, 0.5, 0.1]","[0.8, 0.4, 0.2]","[u'black', u'red', u'blue']","[u'left', u'middle', u'right']","[0.9, 0.5, 0.1]","[u'low', u'high', u'medium']","red",50,"middle","high","True","False",251,2500,NA
"AW0XXNPFHP7XD","Thu Oct 01 2020 08:43:14 GMT-0700 (Pacific Daylight Time)","Thu Oct 01 2020 08:50:17 GMT-0700 (Pacific Daylight Time)","Mozilla/5.0 (Windows NT 6.1; Win64; x64) AppleWebKit/537.36 (KHTML, like Gecko) Chrome/85.0.4183.121 Safari/537.36",35,"[0.9, 0.5, 0.1]","[0.8, 0.4, 0.2]","[u'black', u'red', u'blue']","[u'left', u'middle', u'right']","[0.9, 0.5, 0.1]","[u'low', u'high', u'medium']","red",50,"middle","high","True","False",257,2600,NA
"AW0XXNPFHP7XD","Thu Oct 01 2020 08:43:14 GMT-0700 (Pacific Daylight Time)","Thu Oct 01 2020 08:50:17 GMT-0700 (Pacific Daylight Time)","Mozilla/5.0 (Windows NT 6.1; Win64; x64) AppleWebKit/537.36 (KHTML, like Gecko) Chrome/85.0.4183.121 Safari/537.36",36,"[0.9, 0.5, 0.1]","[0.8, 0.4, 0.2]","[u'black', u'red', u'blue']","[u'left', u'middle', u'right']","[0.9, 0.5, 0.1]","[u'low', u'high', u'medium']","red",50,"middle","high","True","False",279,2700,NA
"AW0XXNPFHP7XD","Thu Oct 01 2020 08:43:14 GMT-0700 (Pacific Daylight Time)","Thu Oct 01 2020 08:50:17 GMT-0700 (Pacific Daylight Time)","Mozilla/5.0 (Windows NT 6.1; Win64; x64) AppleWebKit/537.36 (KHTML, like Gecko) Chrome/85.0.4183.121 Safari/537.36",37,"[0.9, 0.5, 0.1]","[0.8, 0.4, 0.2]","[u'black', u'red', u'blue']","[u'left', u'middle', u'right']","[0.9, 0.5, 0.1]","[u'low', u'high', u'medium']","red",50,"middle","high","True","False",272,2800,NA
"AW0XXNPFHP7XD","Thu Oct 01 2020 08:43:14 GMT-0700 (Pacific Daylight Time)","Thu Oct 01 2020 08:50:17 GMT-0700 (Pacific Daylight Time)","Mozilla/5.0 (Windows NT 6.1; Win64; x64) AppleWebKit/537.36 (KHTML, like Gecko) Chrome/85.0.4183.121 Safari/537.36",38,"[0.9, 0.5, 0.1]","[0.8, 0.4, 0.2]","[u'black', u'red', u'blue']","[u'left', u'middle', u'right']","[0.9, 0.5, 0.1]","[u'low', u'high', u'medium']","red",50,"middle","high","True","False",247,2900,NA
"AW0XXNPFHP7XD","Thu Oct 01 2020 08:43:14 GMT-0700 (Pacific Daylight Time)","Thu Oct 01 2020 08:50:17 GMT-0700 (Pacific Daylight Time)","Mozilla/5.0 (Windows NT 6.1; Win64; x64) AppleWebKit/537.36 (KHTML, like Gecko) Chrome/85.0.4183.121 Safari/537.36",39,"[0.9, 0.5, 0.1]","[0.8, 0.4, 0.2]","[u'black', u'red', u'blue']","[u'left', u'middle', u'right']","[0.9, 0.5, 0.1]","[u'low', u'high', u'medium']","red",50,"middle","high","True","False",248,3000,NA
"AW0XXNPFHP7XD","Thu Oct 01 2020 08:43:14 GMT-0700 (Pacific Daylight Time)","Thu Oct 01 2020 08:50:17 GMT-0700 (Pacific Daylight Time)","Mozilla/5.0 (Windows NT 6.1; Win64; x64) AppleWebKit/537.36 (KHTML, like Gecko) Chrome/85.0.4183.121 Safari/537.36",40,"[0.9, 0.5, 0.1]","[0.8, 0.4, 0.2]","[u'black', u'red', u'blue']","[u'left', u'middle', u'right']","[0.9, 0.5, 0.1]","[u'low', u'high', u'medium']","red",50,"middle","high","True","False",279,3100,NA
"AW0XXNPFHP7XD","Thu Oct 01 2020 08:43:14 GMT-0700 (Pacific Daylight Time)","Thu Oct 01 2020 08:50:17 GMT-0700 (Pacific Daylight Time)","Mozilla/5.0 (Windows NT 6.1; Win64; x64) AppleWebKit/537.36 (KHTML, like Gecko) Chrome/85.0.4183.121 Safari/537.36",41,"[0.9, 0.5, 0.1]","[0.8, 0.4, 0.2]","[u'black', u'red', u'blue']","[u'left', u'middle', u'right']","[0.9, 0.5, 0.1]","[u'high', u'low', u'medium']","red",50,"middle","low","False","False",362,3050,NA
"AW0XXNPFHP7XD","Thu Oct 01 2020 08:43:14 GMT-0700 (Pacific Daylight Time)","Thu Oct 01 2020 08:50:17 GMT-0700 (Pacific Daylight Time)","Mozilla/5.0 (Windows NT 6.1; Win64; x64) AppleWebKit/537.36 (KHTML, like Gecko) Chrome/85.0.4183.121 Safari/537.36",42,"[0.9, 0.5, 0.1]","[0.8, 0.4, 0.2]","[u'black', u'red', u'blue']","[u'left', u'middle', u'right']","[0.9, 0.5, 0.1]","[u'high', u'low', u'medium']","black",49,"left","high","True","False",243,3150,NA
"AW0XXNPFHP7XD","Thu Oct 01 2020 08:43:14 GMT-0700 (Pacific Daylight Time)","Thu Oct 01 2020 08:50:17 GMT-0700 (Pacific Daylight Time)","Mozilla/5.0 (Windows NT 6.1; Win64; x64) AppleWebKit/537.36 (KHTML, like Gecko) Chrome/85.0.4183.121 Safari/537.36",43,"[0.9, 0.5, 0.1]","[0.8, 0.4, 0.2]","[u'black', u'red', u'blue']","[u'left', u'middle', u'right']","[0.9, 0.5, 0.1]","[u'high', u'low', u'medium']","black",49,"left","high","False","False",219,3100,NA
"AW0XXNPFHP7XD","Thu Oct 01 2020 08:43:14 GMT-0700 (Pacific Daylight Time)","Thu Oct 01 2020 08:50:17 GMT-0700 (Pacific Daylight Time)","Mozilla/5.0 (Windows NT 6.1; Win64; x64) AppleWebKit/537.36 (KHTML, like Gecko) Chrome/85.0.4183.121 Safari/537.36",44,"[0.9, 0.5, 0.1]","[0.8, 0.4, 0.2]","[u'black', u'red', u'blue']","[u'left', u'middle', u'right']","[0.9, 0.5, 0.1]","[u'high', u'low', u'medium']","blue",51,"right","medium","True","False",251,3200,NA
"AW0XXNPFHP7XD","Thu Oct 01 2020 08:43:14 GMT-0700 (Pacific Daylight Time)","Thu Oct 01 2020 08:50:17 GMT-0700 (Pacific Daylight Time)","Mozilla/5.0 (Windows NT 6.1; Win64; x64) AppleWebKit/537.36 (KHTML, like Gecko) Chrome/85.0.4183.121 Safari/537.36",45,"[0.9, 0.5, 0.1]","[0.8, 0.4, 0.2]","[u'black', u'red', u'blue']","[u'left', u'middle', u'right']","[0.9, 0.5, 0.1]","[u'high', u'low', u'medium']","blue",51,"right","medium","True","False",275,3300,NA
"AW0XXNPFHP7XD","Thu Oct 01 2020 08:43:14 GMT-0700 (Pacific Daylight Time)","Thu Oct 01 2020 08:50:17 GMT-0700 (Pacific Daylight Time)","Mozilla/5.0 (Windows NT 6.1; Win64; x64) AppleWebKit/537.36 (KHTML, like Gecko) Chrome/85.0.4183.121 Safari/537.36",46,"[0.9, 0.5, 0.1]","[0.8, 0.4, 0.2]","[u'black', u'red', u'blue']","[u'left', u'middle', u'right']","[0.9, 0.5, 0.1]","[u'high', u'low', u'medium']","blue",51,"right","medium","False","False",259,3250,NA
"AW0XXNPFHP7XD","Thu Oct 01 2020 08:43:14 GMT-0700 (Pacific Daylight Time)","Thu Oct 01 2020 08:50:17 GMT-0700 (Pacific Daylight Time)","Mozilla/5.0 (Windows NT 6.1; Win64; x64) AppleWebKit/537.36 (KHTML, like Gecko) Chrome/85.0.4183.121 Safari/537.36",47,"[0.9, 0.5, 0.1]","[0.8, 0.4, 0.2]","[u'black', u'red', u'blue']","[u'left', u'middle', u'right']","[0.9, 0.5, 0.1]","[u'high', u'low', u'medium']","red",50,"middle","low","False","False",324,3200,NA
"AW0XXNPFHP7XD","Thu Oct 01 2020 08:43:14 GMT-0700 (Pacific Daylight Time)","Thu Oct 01 2020 08:50:17 GMT-0700 (Pacific Daylight Time)","Mozilla/5.0 (Windows NT 6.1; Win64; x64) AppleWebKit/537.36 (KHTML, like Gecko) Chrome/85.0.4183.121 Safari/537.36",48,"[0.9, 0.5, 0.1]","[0.8, 0.4, 0.2]","[u'black', u'red', u'blue']","[u'left', u'middle', u'right']","[0.9, 0.5, 0.1]","[u'high', u'low', u'medium']","black",49,"left","high","True","False",234,3300,NA
"AW0XXNPFHP7XD","Thu Oct 01 2020 08:43:14 GMT-0700 (Pacific Daylight Time)","Thu Oct 01 2020 08:50:17 GMT-0700 (Pacific Daylight Time)","Mozilla/5.0 (Windows NT 6.1; Win64; x64) AppleWebKit/537.36 (KHTML, like Gecko) Chrome/85.0.4183.121 Safari/537.36",49,"[0.9, 0.5, 0.1]","[0.8, 0.4, 0.2]","[u'black', u'red', u'blue']","[u'left', u'middle', u'right']","[0.9, 0.5, 0.1]","[u'high', u'low', u'medium']","black",49,"left","high","True","False",275,3400,NA
"AW0XXNPFHP7XD","Thu Oct 01 2020 08:43:14 GMT-0700 (Pacific Daylight Time)","Thu Oct 01 2020 08:50:17 GMT-0700 (Pacific Daylight Time)","Mozilla/5.0 (Windows NT 6.1; Win64; x64) AppleWebKit/537.36 (KHTML, like Gecko) Chrome/85.0.4183.121 Safari/537.36",50,"[0.9, 0.5, 0.1]","[0.8, 0.4, 0.2]","[u'black', u'red', u'blue']","[u'left', u'middle', u'right']","[0.9, 0.5, 0.1]","[u'high', u'low', u'medium']","black",49,"left","high","True","False",282,3500,NA
"AW0XXNPFHP7XD","Thu Oct 01 2020 08:43:14 GMT-0700 (Pacific Daylight Time)","Thu Oct 01 2020 08:50:17 GMT-0700 (Pacific Daylight Time)","Mozilla/5.0 (Windows NT 6.1; Win64; x64) AppleWebKit/537.36 (KHTML, like Gecko) Chrome/85.0.4183.121 Safari/537.36",51,"[0.9, 0.5, 0.1]","[0.8, 0.4, 0.2]","[u'black', u'red', u'blue']","[u'left', u'middle', u'right']","[0.9, 0.5, 0.1]","[u'high', u'low', u'medium']","black",49,"left","high","True","False",284,3600,NA
"AW0XXNPFHP7XD","Thu Oct 01 2020 08:43:14 GMT-0700 (Pacific Daylight Time)","Thu Oct 01 2020 08:50:17 GMT-0700 (Pacific Daylight Time)","Mozilla/5.0 (Windows NT 6.1; Win64; x64) AppleWebKit/537.36 (KHTML, like Gecko) Chrome/85.0.4183.121 Safari/537.36",52,"[0.9, 0.5, 0.1]","[0.8, 0.4, 0.2]","[u'black', u'red', u'blue']","[u'left', u'middle', u'right']","[0.9, 0.5, 0.1]","[u'high', u'low', u'medium']","black",49,"left","high","True","False",275,3700,NA
"AW0XXNPFHP7XD","Thu Oct 01 2020 08:43:14 GMT-0700 (Pacific Daylight Time)","Thu Oct 01 2020 08:50:17 GMT-0700 (Pacific Daylight Time)","Mozilla/5.0 (Windows NT 6.1; Win64; x64) AppleWebKit/537.36 (KHTML, like Gecko) Chrome/85.0.4183.121 Safari/537.36",53,"[0.9, 0.5, 0.1]","[0.8, 0.4, 0.2]","[u'black', u'red', u'blue']","[u'left', u'middle', u'right']","[0.9, 0.5, 0.1]","[u'high', u'low', u'medium']","black",49,"left","high","True","False",268,3800,NA
"AW0XXNPFHP7XD","Thu Oct 01 2020 08:43:14 GMT-0700 (Pacific Daylight Time)","Thu Oct 01 2020 08:50:17 GMT-0700 (Pacific Daylight Time)","Mozilla/5.0 (Windows NT 6.1; Win64; x64) AppleWebKit/537.36 (KHTML, like Gecko) Chrome/85.0.4183.121 Safari/537.36",54,"[0.9, 0.5, 0.1]","[0.8, 0.4, 0.2]","[u'black', u'red', u'blue']","[u'left', u'middle', u'right']","[0.9, 0.5, 0.1]","[u'high', u'low', u'medium']","black",49,"left","high","True","False",306,3900,NA
"AW0XXNPFHP7XD","Thu Oct 01 2020 08:43:14 GMT-0700 (Pacific Daylight Time)","Thu Oct 01 2020 08:50:17 GMT-0700 (Pacific Daylight Time)","Mozilla/5.0 (Windows NT 6.1; Win64; x64) AppleWebKit/537.36 (KHTML, like Gecko) Chrome/85.0.4183.121 Safari/537.36",55,"[0.9, 0.5, 0.1]","[0.8, 0.4, 0.2]","[u'black', u'red', u'blue']","[u'left', u'middle', u'right']","[0.9, 0.5, 0.1]","[u'high', u'low', u'medium']","black",49,"left","high","True","False",275,4000,NA
"AW0XXNPFHP7XD","Thu Oct 01 2020 08:43:14 GMT-0700 (Pacific Daylight Time)","Thu Oct 01 2020 08:50:17 GMT-0700 (Pacific Daylight Time)","Mozilla/5.0 (Windows NT 6.1; Win64; x64) AppleWebKit/537.36 (KHTML, like Gecko) Chrome/85.0.4183.121 Safari/537.36",56,"[0.9, 0.5, 0.1]","[0.8, 0.4, 0.2]","[u'black', u'red', u'blue']","[u'left', u'middle', u'right']","[0.9, 0.5, 0.1]","[u'high', u'low', u'medium']","black",49,"left","high","True","True",291,4100,NA
"AW0XXNPFHP7XD","Thu Oct 01 2020 08:43:14 GMT-0700 (Pacific Daylight Time)","Thu Oct 01 2020 08:50:17 GMT-0700 (Pacific Daylight Time)","Mozilla/5.0 (Windows NT 6.1; Win64; x64) AppleWebKit/537.36 (KHTML, like Gecko) Chrome/85.0.4183.121 Safari/537.36",57,"[0.9, 0.5, 0.1]","[0.8, 0.4, 0.2]","[u'black', u'red', u'blue']","[u'left', u'middle', u'right']","[0.9, 0.5, 0.1]","[u'low', u'medium', u'high']","black",49,"left","low","False","False",284,4050,NA
"AW0XXNPFHP7XD","Thu Oct 01 2020 08:43:14 GMT-0700 (Pacific Daylight Time)","Thu Oct 01 2020 08:50:17 GMT-0700 (Pacific Daylight Time)","Mozilla/5.0 (Windows NT 6.1; Win64; x64) AppleWebKit/537.36 (KHTML, like Gecko) Chrome/85.0.4183.121 Safari/537.36",58,"[0.9, 0.5, 0.1]","[0.8, 0.4, 0.2]","[u'black', u'red', u'blue']","[u'left', u'middle', u'right']","[0.9, 0.5, 0.1]","[u'low', u'medium', u'high']","blue",51,"right","high","True","False",259,4150,NA
"AW0XXNPFHP7XD","Thu Oct 01 2020 08:43:14 GMT-0700 (Pacific Daylight Time)","Thu Oct 01 2020 08:50:17 GMT-0700 (Pacific Daylight Time)","Mozilla/5.0 (Windows NT 6.1; Win64; x64) AppleWebKit/537.36 (KHTML, like Gecko) Chrome/85.0.4183.121 Safari/537.36",59,"[0.9, 0.5, 0.1]","[0.8, 0.4, 0.2]","[u'black', u'red', u'blue']","[u'left', u'middle', u'right']","[0.9, 0.5, 0.1]","[u'low', u'medium', u'high']","blue",51,"right","high","True","False",252,4250,NA
"AW0XXNPFHP7XD","Thu Oct 01 2020 08:43:14 GMT-0700 (Pacific Daylight Time)","Thu Oct 01 2020 08:50:17 GMT-0700 (Pacific Daylight Time)","Mozilla/5.0 (Windows NT 6.1; Win64; x64) AppleWebKit/537.36 (KHTML, like Gecko) Chrome/85.0.4183.121 Safari/537.36",60,"[0.9, 0.5, 0.1]","[0.8, 0.4, 0.2]","[u'black', u'red', u'blue']","[u'left', u'middle', u'right']","[0.9, 0.5, 0.1]","[u'low', u'medium', u'high']","blue",51,"right","high","True","False",235,4350,NA
"AW0XXNPFHP7XD","Thu Oct 01 2020 08:43:14 GMT-0700 (Pacific Daylight Time)","Thu Oct 01 2020 08:50:17 GMT-0700 (Pacific Daylight Time)","Mozilla/5.0 (Windows NT 6.1; Win64; x64) AppleWebKit/537.36 (KHTML, like Gecko) Chrome/85.0.4183.121 Safari/537.36",61,"[0.9, 0.5, 0.1]","[0.8, 0.4, 0.2]","[u'black', u'red', u'blue']","[u'left', u'middle', u'right']","[0.9, 0.5, 0.1]","[u'low', u'medium', u'high']","blue",51,"right","high","True","False",292,4450,NA
"AW0XXNPFHP7XD","Thu Oct 01 2020 08:43:14 GMT-0700 (Pacific Daylight Time)","Thu Oct 01 2020 08:50:17 GMT-0700 (Pacific Daylight Time)","Mozilla/5.0 (Windows NT 6.1; Win64; x64) AppleWebKit/537.36 (KHTML, like Gecko) Chrome/85.0.4183.121 Safari/537.36",62,"[0.9, 0.5, 0.1]","[0.8, 0.4, 0.2]","[u'black', u'red', u'blue']","[u'left', u'middle', u'right']","[0.9, 0.5, 0.1]","[u'low', u'medium', u'high']","blue",51,"right","high","True","False",280,4550,NA
"AW0XXNPFHP7XD","Thu Oct 01 2020 08:43:14 GMT-0700 (Pacific Daylight Time)","Thu Oct 01 2020 08:50:17 GMT-0700 (Pacific Daylight Time)","Mozilla/5.0 (Windows NT 6.1; Win64; x64) AppleWebKit/537.36 (KHTML, like Gecko) Chrome/85.0.4183.121 Safari/537.36",63,"[0.9, 0.5, 0.1]","[0.8, 0.4, 0.2]","[u'black', u'red', u'blue']","[u'left', u'middle', u'right']","[0.9, 0.5, 0.1]","[u'low', u'medium', u'high']","blue",51,"right","high","True","False",331,4650,NA
"AW0XXNPFHP7XD","Thu Oct 01 2020 08:43:14 GMT-0700 (Pacific Daylight Time)","Thu Oct 01 2020 08:50:17 GMT-0700 (Pacific Daylight Time)","Mozilla/5.0 (Windows NT 6.1; Win64; x64) AppleWebKit/537.36 (KHTML, like Gecko) Chrome/85.0.4183.121 Safari/537.36",64,"[0.9, 0.5, 0.1]","[0.8, 0.4, 0.2]","[u'black', u'red', u'blue']","[u'left', u'middle', u'right']","[0.9, 0.5, 0.1]","[u'low', u'medium', u'high']","blue",51,"right","high","True","False",307,4750,NA
"AW0XXNPFHP7XD","Thu Oct 01 2020 08:43:14 GMT-0700 (Pacific Daylight Time)","Thu Oct 01 2020 08:50:17 GMT-0700 (Pacific Daylight Time)","Mozilla/5.0 (Windows NT 6.1; Win64; x64) AppleWebKit/537.36 (KHTML, like Gecko) Chrome/85.0.4183.121 Safari/537.36",65,"[0.9, 0.5, 0.1]","[0.8, 0.4, 0.2]","[u'black', u'red', u'blue']","[u'left', u'middle', u'right']","[0.9, 0.5, 0.1]","[u'low', u'medium', u'high']","blue",51,"right","high","True","False",274,4850,NA
"AW0XXNPFHP7XD","Thu Oct 01 2020 08:43:14 GMT-0700 (Pacific Daylight Time)","Thu Oct 01 2020 08:50:17 GMT-0700 (Pacific Daylight Time)","Mozilla/5.0 (Windows NT 6.1; Win64; x64) AppleWebKit/537.36 (KHTML, like Gecko) Chrome/85.0.4183.121 Safari/537.36",66,"[0.9, 0.5, 0.1]","[0.8, 0.4, 0.2]","[u'black', u'red', u'blue']","[u'left', u'middle', u'right']","[0.9, 0.5, 0.1]","[u'low', u'medium', u'high']","blue",51,"right","high","True","True",270,4950,NA
"AW0XXNPFHP7XD","Thu Oct 01 2020 08:43:14 GMT-0700 (Pacific Daylight Time)","Thu Oct 01 2020 08:50:17 GMT-0700 (Pacific Daylight Time)","Mozilla/5.0 (Windows NT 6.1; Win64; x64) AppleWebKit/537.36 (KHTML, like Gecko) Chrome/85.0.4183.121 Safari/537.36",67,"[0.9, 0.5, 0.1]","[0.8, 0.4, 0.2]","[u'black', u'red', u'blue']","[u'left', u'middle', u'right']","[0.9, 0.5, 0.1]","[u'medium', u'high', u'low']","blue",51,"right","low","False","False",327,4900,NA
"AW0XXNPFHP7XD","Thu Oct 01 2020 08:43:14 GMT-0700 (Pacific Daylight Time)","Thu Oct 01 2020 08:50:17 GMT-0700 (Pacific Daylight Time)","Mozilla/5.0 (Windows NT 6.1; Win64; x64) AppleWebKit/537.36 (KHTML, like Gecko) Chrome/85.0.4183.121 Safari/537.36",68,"[0.9, 0.5, 0.1]","[0.8, 0.4, 0.2]","[u'black', u'red', u'blue']","[u'left', u'middle', u'right']","[0.9, 0.5, 0.1]","[u'medium', u'high', u'low']","red",50,"middle","high","True","False",224,5000,NA
"AW0XXNPFHP7XD","Thu Oct 01 2020 08:43:14 GMT-0700 (Pacific Daylight Time)","Thu Oct 01 2020 08:50:17 GMT-0700 (Pacific Daylight Time)","Mozilla/5.0 (Windows NT 6.1; Win64; x64) AppleWebKit/537.36 (KHTML, like Gecko) Chrome/85.0.4183.121 Safari/537.36",69,"[0.9, 0.5, 0.1]","[0.8, 0.4, 0.2]","[u'black', u'red', u'blue']","[u'left', u'middle', u'right']","[0.9, 0.5, 0.1]","[u'medium', u'high', u'low']","red",50,"middle","high","True","False",255,5100,NA
"AW0XXNPFHP7XD","Thu Oct 01 2020 08:43:14 GMT-0700 (Pacific Daylight Time)","Thu Oct 01 2020 08:50:17 GMT-0700 (Pacific Daylight Time)","Mozilla/5.0 (Windows NT 6.1; Win64; x64) AppleWebKit/537.36 (KHTML, like Gecko) Chrome/85.0.4183.121 Safari/537.36",70,"[0.9, 0.5, 0.1]","[0.8, 0.4, 0.2]","[u'black', u'red', u'blue']","[u'left', u'middle', u'right']","[0.9, 0.5, 0.1]","[u'medium', u'high', u'low']","red",50,"middle","high","True","False",287,5200,NA
"AW0XXNPFHP7XD","Thu Oct 01 2020 08:43:14 GMT-0700 (Pacific Daylight Time)","Thu Oct 01 2020 08:50:17 GMT-0700 (Pacific Daylight Time)","Mozilla/5.0 (Windows NT 6.1; Win64; x64) AppleWebKit/537.36 (KHTML, like Gecko) Chrome/85.0.4183.121 Safari/537.36",71,"[0.9, 0.5, 0.1]","[0.8, 0.4, 0.2]","[u'black', u'red', u'blue']","[u'left', u'middle', u'right']","[0.9, 0.5, 0.1]","[u'medium', u'high', u'low']","red",50,"middle","high","False","False",256,5150,NA
"AW0XXNPFHP7XD","Thu Oct 01 2020 08:43:14 GMT-0700 (Pacific Daylight Time)","Thu Oct 01 2020 08:50:17 GMT-0700 (Pacific Daylight Time)","Mozilla/5.0 (Windows NT 6.1; Win64; x64) AppleWebKit/537.36 (KHTML, like Gecko) Chrome/85.0.4183.121 Safari/537.36",72,"[0.9, 0.5, 0.1]","[0.8, 0.4, 0.2]","[u'black', u'red', u'blue']","[u'left', u'middle', u'right']","[0.9, 0.5, 0.1]","[u'medium', u'high', u'low']","black",49,"left","medium","False","False",208,5100,NA
"AW0XXNPFHP7XD","Thu Oct 01 2020 08:43:14 GMT-0700 (Pacific Daylight Time)","Thu Oct 01 2020 08:50:17 GMT-0700 (Pacific Daylight Time)","Mozilla/5.0 (Windows NT 6.1; Win64; x64) AppleWebKit/537.36 (KHTML, like Gecko) Chrome/85.0.4183.121 Safari/537.36",73,"[0.9, 0.5, 0.1]","[0.8, 0.4, 0.2]","[u'black', u'red', u'blue']","[u'left', u'middle', u'right']","[0.9, 0.5, 0.1]","[u'medium', u'high', u'low']","blue",51,"right","low","False","False",178,5050,NA
"AW0XXNPFHP7XD","Thu Oct 01 2020 08:43:14 GMT-0700 (Pacific Daylight Time)","Thu Oct 01 2020 08:50:17 GMT-0700 (Pacific Daylight Time)","Mozilla/5.0 (Windows NT 6.1; Win64; x64) AppleWebKit/537.36 (KHTML, like Gecko) Chrome/85.0.4183.121 Safari/537.36",74,"[0.9, 0.5, 0.1]","[0.8, 0.4, 0.2]","[u'black', u'red', u'blue']","[u'left', u'middle', u'right']","[0.9, 0.5, 0.1]","[u'medium', u'high', u'low']","red",50,"middle","high","True","False",171,5150,NA
"AW0XXNPFHP7XD","Thu Oct 01 2020 08:43:14 GMT-0700 (Pacific Daylight Time)","Thu Oct 01 2020 08:50:17 GMT-0700 (Pacific Daylight Time)","Mozilla/5.0 (Windows NT 6.1; Win64; x64) AppleWebKit/537.36 (KHTML, like Gecko) Chrome/85.0.4183.121 Safari/537.36",75,"[0.9, 0.5, 0.1]","[0.8, 0.4, 0.2]","[u'black', u'red', u'blue']","[u'left', u'middle', u'right']","[0.9, 0.5, 0.1]","[u'medium', u'high', u'low']","red",50,"middle","high","True","False",225,5250,NA
"AW0XXNPFHP7XD","Thu Oct 01 2020 08:43:14 GMT-0700 (Pacific Daylight Time)","Thu Oct 01 2020 08:50:17 GMT-0700 (Pacific Daylight Time)","Mozilla/5.0 (Windows NT 6.1; Win64; x64) AppleWebKit/537.36 (KHTML, like Gecko) Chrome/85.0.4183.121 Safari/537.36",76,"[0.9, 0.5, 0.1]","[0.8, 0.4, 0.2]","[u'black', u'red', u'blue']","[u'left', u'middle', u'right']","[0.9, 0.5, 0.1]","[u'medium', u'high', u'low']","red",50,"middle","high","True","False",218,5350,NA
"AW0XXNPFHP7XD","Thu Oct 01 2020 08:43:14 GMT-0700 (Pacific Daylight Time)","Thu Oct 01 2020 08:50:17 GMT-0700 (Pacific Daylight Time)","Mozilla/5.0 (Windows NT 6.1; Win64; x64) AppleWebKit/537.36 (KHTML, like Gecko) Chrome/85.0.4183.121 Safari/537.36",77,"[0.9, 0.5, 0.1]","[0.8, 0.4, 0.2]","[u'black', u'red', u'blue']","[u'left', u'middle', u'right']","[0.9, 0.5, 0.1]","[u'medium', u'high', u'low']","red",50,"middle","high","True","False",233,5450,NA
"AW0XXNPFHP7XD","Thu Oct 01 2020 08:43:14 GMT-0700 (Pacific Daylight Time)","Thu Oct 01 2020 08:50:17 GMT-0700 (Pacific Daylight Time)","Mozilla/5.0 (Windows NT 6.1; Win64; x64) AppleWebKit/537.36 (KHTML, like Gecko) Chrome/85.0.4183.121 Safari/537.36",78,"[0.9, 0.5, 0.1]","[0.8, 0.4, 0.2]","[u'black', u'red', u'blue']","[u'left', u'middle', u'right']","[0.9, 0.5, 0.1]","[u'medium', u'high', u'low']","red",50,"middle","high","True","False",248,5550,NA
"AW0XXNPFHP7XD","Thu Oct 01 2020 08:43:14 GMT-0700 (Pacific Daylight Time)","Thu Oct 01 2020 08:50:17 GMT-0700 (Pacific Daylight Time)","Mozilla/5.0 (Windows NT 6.1; Win64; x64) AppleWebKit/537.36 (KHTML, like Gecko) Chrome/85.0.4183.121 Safari/537.36",79,"[0.9, 0.5, 0.1]","[0.8, 0.4, 0.2]","[u'black', u'red', u'blue']","[u'left', u'middle', u'right']","[0.9, 0.5, 0.1]","[u'medium', u'high', u'low']","red",50,"middle","high","True","False",267,5650,NA
"AW0XXNPFHP7XD","Thu Oct 01 2020 08:43:14 GMT-0700 (Pacific Daylight Time)","Thu Oct 01 2020 08:50:17 GMT-0700 (Pacific Daylight Time)","Mozilla/5.0 (Windows NT 6.1; Win64; x64) AppleWebKit/537.36 (KHTML, like Gecko) Chrome/85.0.4183.121 Safari/537.36",80,"[0.9, 0.5, 0.1]","[0.8, 0.4, 0.2]","[u'black', u'red', u'blue']","[u'left', u'middle', u'right']","[0.9, 0.5, 0.1]","[u'medium', u'high', u'low']","red",50,"middle","high","False","False",295,5600,NA
"AW0XXNPFHP7XD","Thu Oct 01 2020 08:43:14 GMT-0700 (Pacific Daylight Time)","Thu Oct 01 2020 08:50:17 GMT-0700 (Pacific Daylight Time)","Mozilla/5.0 (Windows NT 6.1; Win64; x64) AppleWebKit/537.36 (KHTML, like Gecko) Chrome/85.0.4183.121 Safari/537.36",81,"[0.9, 0.5, 0.1]","[0.8, 0.4, 0.2]","[u'black', u'red', u'blue']","[u'left', u'middle', u'right']","[0.8, 0.4, 0.2]","[u'medium', u'low', u'high']","black",49,"left","medium","False","False",289,5550,NA
"AW0XXNPFHP7XD","Thu Oct 01 2020 08:43:14 GMT-0700 (Pacific Daylight Time)","Thu Oct 01 2020 08:50:17 GMT-0700 (Pacific Daylight Time)","Mozilla/5.0 (Windows NT 6.1; Win64; x64) AppleWebKit/537.36 (KHTML, like Gecko) Chrome/85.0.4183.121 Safari/537.36",82,"[0.9, 0.5, 0.1]","[0.8, 0.4, 0.2]","[u'black', u'red', u'blue']","[u'left', u'middle', u'right']","[0.8, 0.4, 0.2]","[u'medium', u'low', u'high']","blue",51,"right","high","True","False",171,5650,NA
"AW0XXNPFHP7XD","Thu Oct 01 2020 08:43:14 GMT-0700 (Pacific Daylight Time)","Thu Oct 01 2020 08:50:17 GMT-0700 (Pacific Daylight Time)","Mozilla/5.0 (Windows NT 6.1; Win64; x64) AppleWebKit/537.36 (KHTML, like Gecko) Chrome/85.0.4183.121 Safari/537.36",83,"[0.9, 0.5, 0.1]","[0.8, 0.4, 0.2]","[u'black', u'red', u'blue']","[u'left', u'middle', u'right']","[0.8, 0.4, 0.2]","[u'medium', u'low', u'high']","blue",51,"right","high","True","False",117,5750,NA
"AW0XXNPFHP7XD","Thu Oct 01 2020 08:43:14 GMT-0700 (Pacific Daylight Time)","Thu Oct 01 2020 08:50:17 GMT-0700 (Pacific Daylight Time)","Mozilla/5.0 (Windows NT 6.1; Win64; x64) AppleWebKit/537.36 (KHTML, like Gecko) Chrome/85.0.4183.121 Safari/537.36",84,"[0.9, 0.5, 0.1]","[0.8, 0.4, 0.2]","[u'black', u'red', u'blue']","[u'left', u'middle', u'right']","[0.8, 0.4, 0.2]","[u'medium', u'low', u'high']","blue",51,"right","high","True","False",279,5850,NA
"AW0XXNPFHP7XD","Thu Oct 01 2020 08:43:14 GMT-0700 (Pacific Daylight Time)","Thu Oct 01 2020 08:50:17 GMT-0700 (Pacific Daylight Time)","Mozilla/5.0 (Windows NT 6.1; Win64; x64) AppleWebKit/537.36 (KHTML, like Gecko) Chrome/85.0.4183.121 Safari/537.36",85,"[0.9, 0.5, 0.1]","[0.8, 0.4, 0.2]","[u'black', u'red', u'blue']","[u'left', u'middle', u'right']","[0.8, 0.4, 0.2]","[u'medium', u'low', u'high']","blue",51,"right","high","True","False",238,5950,NA
"AW0XXNPFHP7XD","Thu Oct 01 2020 08:43:14 GMT-0700 (Pacific Daylight Time)","Thu Oct 01 2020 08:50:17 GMT-0700 (Pacific Daylight Time)","Mozilla/5.0 (Windows NT 6.1; Win64; x64) AppleWebKit/537.36 (KHTML, like Gecko) Chrome/85.0.4183.121 Safari/537.36",86,"[0.9, 0.5, 0.1]","[0.8, 0.4, 0.2]","[u'black', u'red', u'blue']","[u'left', u'middle', u'right']","[0.8, 0.4, 0.2]","[u'medium', u'low', u'high']","blue",51,"right","high","True","False",265,6050,NA
"AW0XXNPFHP7XD","Thu Oct 01 2020 08:43:14 GMT-0700 (Pacific Daylight Time)","Thu Oct 01 2020 08:50:17 GMT-0700 (Pacific Daylight Time)","Mozilla/5.0 (Windows NT 6.1; Win64; x64) AppleWebKit/537.36 (KHTML, like Gecko) Chrome/85.0.4183.121 Safari/537.36",87,"[0.9, 0.5, 0.1]","[0.8, 0.4, 0.2]","[u'black', u'red', u'blue']","[u'left', u'middle', u'right']","[0.8, 0.4, 0.2]","[u'medium', u'low', u'high']","blue",51,"right","high","True","False",250,6150,NA
"AW0XXNPFHP7XD","Thu Oct 01 2020 08:43:14 GMT-0700 (Pacific Daylight Time)","Thu Oct 01 2020 08:50:17 GMT-0700 (Pacific Daylight Time)","Mozilla/5.0 (Windows NT 6.1; Win64; x64) AppleWebKit/537.36 (KHTML, like Gecko) Chrome/85.0.4183.121 Safari/537.36",88,"[0.9, 0.5, 0.1]","[0.8, 0.4, 0.2]","[u'black', u'red', u'blue']","[u'left', u'middle', u'right']","[0.8, 0.4, 0.2]","[u'medium', u'low', u'high']","blue",51,"right","high","True","False",257,6250,NA
"AW0XXNPFHP7XD","Thu Oct 01 2020 08:43:14 GMT-0700 (Pacific Daylight Time)","Thu Oct 01 2020 08:50:17 GMT-0700 (Pacific Daylight Time)","Mozilla/5.0 (Windows NT 6.1; Win64; x64) AppleWebKit/537.36 (KHTML, like Gecko) Chrome/85.0.4183.121 Safari/537.36",89,"[0.9, 0.5, 0.1]","[0.8, 0.4, 0.2]","[u'black', u'red', u'blue']","[u'left', u'middle', u'right']","[0.8, 0.4, 0.2]","[u'medium', u'low', u'high']","blue",51,"right","high","True","False",207,6350,NA
"AW0XXNPFHP7XD","Thu Oct 01 2020 08:43:14 GMT-0700 (Pacific Daylight Time)","Thu Oct 01 2020 08:50:17 GMT-0700 (Pacific Daylight Time)","Mozilla/5.0 (Windows NT 6.1; Win64; x64) AppleWebKit/537.36 (KHTML, like Gecko) Chrome/85.0.4183.121 Safari/537.36",90,"[0.9, 0.5, 0.1]","[0.8, 0.4, 0.2]","[u'black', u'red', u'blue']","[u'left', u'middle', u'right']","[0.8, 0.4, 0.2]","[u'medium', u'low', u'high']","blue",51,"right","high","True","True",253,6450,NA
"AW0XXNPFHP7XD","Thu Oct 01 2020 08:43:14 GMT-0700 (Pacific Daylight Time)","Thu Oct 01 2020 08:50:17 GMT-0700 (Pacific Daylight Time)","Mozilla/5.0 (Windows NT 6.1; Win64; x64) AppleWebKit/537.36 (KHTML, like Gecko) Chrome/85.0.4183.121 Safari/537.36",91,"[0.9, 0.5, 0.1]","[0.8, 0.4, 0.2]","[u'black', u'red', u'blue']","[u'left', u'middle', u'right']","[0.8, 0.4, 0.2]","[u'high', u'low', u'medium']","blue",51,"right","medium","True","False",243,6550,NA
"AW0XXNPFHP7XD","Thu Oct 01 2020 08:43:14 GMT-0700 (Pacific Daylight Time)","Thu Oct 01 2020 08:50:17 GMT-0700 (Pacific Daylight Time)","Mozilla/5.0 (Windows NT 6.1; Win64; x64) AppleWebKit/537.36 (KHTML, like Gecko) Chrome/85.0.4183.121 Safari/537.36",92,"[0.9, 0.5, 0.1]","[0.8, 0.4, 0.2]","[u'black', u'red', u'blue']","[u'left', u'middle', u'right']","[0.8, 0.4, 0.2]","[u'high', u'low', u'medium']","blue",51,"right","medium","False","False",218,6500,NA
"AW0XXNPFHP7XD","Thu Oct 01 2020 08:43:14 GMT-0700 (Pacific Daylight Time)","Thu Oct 01 2020 08:50:17 GMT-0700 (Pacific Daylight Time)","Mozilla/5.0 (Windows NT 6.1; Win64; x64) AppleWebKit/537.36 (KHTML, like Gecko) Chrome/85.0.4183.121 Safari/537.36",93,"[0.9, 0.5, 0.1]","[0.8, 0.4, 0.2]","[u'black', u'red', u'blue']","[u'left', u'middle', u'right']","[0.8, 0.4, 0.2]","[u'high', u'low', u'medium']","red",50,"middle","low","False","False",195,6450,NA
"AW0XXNPFHP7XD","Thu Oct 01 2020 08:43:14 GMT-0700 (Pacific Daylight Time)","Thu Oct 01 2020 08:50:17 GMT-0700 (Pacific Daylight Time)","Mozilla/5.0 (Windows NT 6.1; Win64; x64) AppleWebKit/537.36 (KHTML, like Gecko) Chrome/85.0.4183.121 Safari/537.36",94,"[0.9, 0.5, 0.1]","[0.8, 0.4, 0.2]","[u'black', u'red', u'blue']","[u'left', u'middle', u'right']","[0.8, 0.4, 0.2]","[u'high', u'low', u'medium']","black",49,"left","high","True","False",131,6550,NA
"AW0XXNPFHP7XD","Thu Oct 01 2020 08:43:14 GMT-0700 (Pacific Daylight Time)","Thu Oct 01 2020 08:50:17 GMT-0700 (Pacific Daylight Time)","Mozilla/5.0 (Windows NT 6.1; Win64; x64) AppleWebKit/537.36 (KHTML, like Gecko) Chrome/85.0.4183.121 Safari/537.36",95,"[0.9, 0.5, 0.1]","[0.8, 0.4, 0.2]","[u'black', u'red', u'blue']","[u'left', u'middle', u'right']","[0.8, 0.4, 0.2]","[u'high', u'low', u'medium']","black",49,"left","high","True","False",167,6650,NA
"AW0XXNPFHP7XD","Thu Oct 01 2020 08:43:14 GMT-0700 (Pacific Daylight Time)","Thu Oct 01 2020 08:50:17 GMT-0700 (Pacific Daylight Time)","Mozilla/5.0 (Windows NT 6.1; Win64; x64) AppleWebKit/537.36 (KHTML, like Gecko) Chrome/85.0.4183.121 Safari/537.36",96,"[0.9, 0.5, 0.1]","[0.8, 0.4, 0.2]","[u'black', u'red', u'blue']","[u'left', u'middle', u'right']","[0.8, 0.4, 0.2]","[u'high', u'low', u'medium']","black",49,"left","high","True","False",204,6750,NA
"AW0XXNPFHP7XD","Thu Oct 01 2020 08:43:14 GMT-0700 (Pacific Daylight Time)","Thu Oct 01 2020 08:50:17 GMT-0700 (Pacific Daylight Time)","Mozilla/5.0 (Windows NT 6.1; Win64; x64) AppleWebKit/537.36 (KHTML, like Gecko) Chrome/85.0.4183.121 Safari/537.36",97,"[0.9, 0.5, 0.1]","[0.8, 0.4, 0.2]","[u'black', u'red', u'blue']","[u'left', u'middle', u'right']","[0.8, 0.4, 0.2]","[u'high', u'low', u'medium']","black",49,"left","high","True","False",179,6850,NA
"AW0XXNPFHP7XD","Thu Oct 01 2020 08:43:14 GMT-0700 (Pacific Daylight Time)","Thu Oct 01 2020 08:50:17 GMT-0700 (Pacific Daylight Time)","Mozilla/5.0 (Windows NT 6.1; Win64; x64) AppleWebKit/537.36 (KHTML, like Gecko) Chrome/85.0.4183.121 Safari/537.36",98,"[0.9, 0.5, 0.1]","[0.8, 0.4, 0.2]","[u'black', u'red', u'blue']","[u'left', u'middle', u'right']","[0.8, 0.4, 0.2]","[u'high', u'low', u'medium']","black",49,"left","high","True","False",79,6950,NA
"AW0XXNPFHP7XD","Thu Oct 01 2020 08:43:14 GMT-0700 (Pacific Daylight Time)","Thu Oct 01 2020 08:50:17 GMT-0700 (Pacific Daylight Time)","Mozilla/5.0 (Windows NT 6.1; Win64; x64) AppleWebKit/537.36 (KHTML, like Gecko) Chrome/85.0.4183.121 Safari/537.36",99,"[0.9, 0.5, 0.1]","[0.8, 0.4, 0.2]","[u'black', u'red', u'blue']","[u'left', u'middle', u'right']","[0.8, 0.4, 0.2]","[u'high', u'low', u'medium']","black",49,"left","high","False","False",163,6900,NA
"AW0XXNPFHP7XD","Thu Oct 01 2020 08:43:14 GMT-0700 (Pacific Daylight Time)","Thu Oct 01 2020 08:50:17 GMT-0700 (Pacific Daylight Time)","Mozilla/5.0 (Windows NT 6.1; Win64; x64) AppleWebKit/537.36 (KHTML, like Gecko) Chrome/85.0.4183.121 Safari/537.36",100,"[0.9, 0.5, 0.1]","[0.8, 0.4, 0.2]","[u'black', u'red', u'blue']","[u'left', u'middle', u'right']","[0.8, 0.4, 0.2]","[u'high', u'low', u'medium']","blue",51,"right","medium","True","False",169,7000,NA
"AW0XXNPFHP7XD","Thu Oct 01 2020 08:43:14 GMT-0700 (Pacific Daylight Time)","Thu Oct 01 2020 08:50:17 GMT-0700 (Pacific Daylight Time)","Mozilla/5.0 (Windows NT 6.1; Win64; x64) AppleWebKit/537.36 (KHTML, like Gecko) Chrome/85.0.4183.121 Safari/537.36",101,"[0.9, 0.5, 0.1]","[0.8, 0.4, 0.2]","[u'black', u'red', u'blue']","[u'left', u'middle', u'right']","[0.8, 0.4, 0.2]","[u'high', u'low', u'medium']","blue",51,"right","medium","True","False",211,7100,NA
"AW0XXNPFHP7XD","Thu Oct 01 2020 08:43:14 GMT-0700 (Pacific Daylight Time)","Thu Oct 01 2020 08:50:17 GMT-0700 (Pacific Daylight Time)","Mozilla/5.0 (Windows NT 6.1; Win64; x64) AppleWebKit/537.36 (KHTML, like Gecko) Chrome/85.0.4183.121 Safari/537.36",102,"[0.9, 0.5, 0.1]","[0.8, 0.4, 0.2]","[u'black', u'red', u'blue']","[u'left', u'middle', u'right']","[0.8, 0.4, 0.2]","[u'high', u'low', u'medium']","blue",51,"right","medium","True","False",210,7200,NA
"AW0XXNPFHP7XD","Thu Oct 01 2020 08:43:14 GMT-0700 (Pacific Daylight Time)","Thu Oct 01 2020 08:50:17 GMT-0700 (Pacific Daylight Time)","Mozilla/5.0 (Windows NT 6.1; Win64; x64) AppleWebKit/537.36 (KHTML, like Gecko) Chrome/85.0.4183.121 Safari/537.36",103,"[0.9, 0.5, 0.1]","[0.8, 0.4, 0.2]","[u'black', u'red', u'blue']","[u'left', u'middle', u'right']","[0.8, 0.4, 0.2]","[u'high', u'low', u'medium']","blue",51,"right","medium","False","False",224,7150,NA
"AW0XXNPFHP7XD","Thu Oct 01 2020 08:43:14 GMT-0700 (Pacific Daylight Time)","Thu Oct 01 2020 08:50:17 GMT-0700 (Pacific Daylight Time)","Mozilla/5.0 (Windows NT 6.1; Win64; x64) AppleWebKit/537.36 (KHTML, like Gecko) Chrome/85.0.4183.121 Safari/537.36",104,"[0.9, 0.5, 0.1]","[0.8, 0.4, 0.2]","[u'black', u'red', u'blue']","[u'left', u'middle', u'right']","[0.8, 0.4, 0.2]","[u'high', u'low', u'medium']","red",50,"middle","low","False","False",145,7100,NA
"AW0XXNPFHP7XD","Thu Oct 01 2020 08:43:14 GMT-0700 (Pacific Daylight Time)","Thu Oct 01 2020 08:50:17 GMT-0700 (Pacific Daylight Time)","Mozilla/5.0 (Windows NT 6.1; Win64; x64) AppleWebKit/537.36 (KHTML, like Gecko) Chrome/85.0.4183.121 Safari/537.36",105,"[0.9, 0.5, 0.1]","[0.8, 0.4, 0.2]","[u'black', u'red', u'blue']","[u'left', u'middle', u'right']","[0.8, 0.4, 0.2]","[u'high', u'low', u'medium']","black",49,"left","high","False","False",251,7050,NA
"AW0XXNPFHP7XD","Thu Oct 01 2020 08:43:14 GMT-0700 (Pacific Daylight Time)","Thu Oct 01 2020 08:50:17 GMT-0700 (Pacific Daylight Time)","Mozilla/5.0 (Windows NT 6.1; Win64; x64) AppleWebKit/537.36 (KHTML, like Gecko) Chrome/85.0.4183.121 Safari/537.36",106,"[0.9, 0.5, 0.1]","[0.8, 0.4, 0.2]","[u'black', u'red', u'blue']","[u'left', u'middle', u'right']","[0.8, 0.4, 0.2]","[u'high', u'low', u'medium']","blue",51,"right","medium","True","False",75,7150,NA
"AW0XXNPFHP7XD","Thu Oct 01 2020 08:43:14 GMT-0700 (Pacific Daylight Time)","Thu Oct 01 2020 08:50:17 GMT-0700 (Pacific Daylight Time)","Mozilla/5.0 (Windows NT 6.1; Win64; x64) AppleWebKit/537.36 (KHTML, like Gecko) Chrome/85.0.4183.121 Safari/537.36",107,"[0.9, 0.5, 0.1]","[0.8, 0.4, 0.2]","[u'black', u'red', u'blue']","[u'left', u'middle', u'right']","[0.8, 0.4, 0.2]","[u'high', u'low', u'medium']","blue",51,"right","medium","False","False",131,7100,NA
"AW0XXNPFHP7XD","Thu Oct 01 2020 08:43:14 GMT-0700 (Pacific Daylight Time)","Thu Oct 01 2020 08:50:17 GMT-0700 (Pacific Daylight Time)","Mozilla/5.0 (Windows NT 6.1; Win64; x64) AppleWebKit/537.36 (KHTML, like Gecko) Chrome/85.0.4183.121 Safari/537.36",108,"[0.9, 0.5, 0.1]","[0.8, 0.4, 0.2]","[u'black', u'red', u'blue']","[u'left', u'middle', u'right']","[0.8, 0.4, 0.2]","[u'high', u'low', u'medium']","red",50,"middle","low","False","False",194,7050,NA
"AW0XXNPFHP7XD","Thu Oct 01 2020 08:43:14 GMT-0700 (Pacific Daylight Time)","Thu Oct 01 2020 08:50:17 GMT-0700 (Pacific Daylight Time)","Mozilla/5.0 (Windows NT 6.1; Win64; x64) AppleWebKit/537.36 (KHTML, like Gecko) Chrome/85.0.4183.121 Safari/537.36",109,"[0.9, 0.5, 0.1]","[0.8, 0.4, 0.2]","[u'black', u'red', u'blue']","[u'left', u'middle', u'right']","[0.8, 0.4, 0.2]","[u'high', u'low', u'medium']","black",49,"left","high","True","False",35,7150,NA
"AW0XXNPFHP7XD","Thu Oct 01 2020 08:43:14 GMT-0700 (Pacific Daylight Time)","Thu Oct 01 2020 08:50:17 GMT-0700 (Pacific Daylight Time)","Mozilla/5.0 (Windows NT 6.1; Win64; x64) AppleWebKit/537.36 (KHTML, like Gecko) Chrome/85.0.4183.121 Safari/537.36",110,"[0.9, 0.5, 0.1]","[0.8, 0.4, 0.2]","[u'black', u'red', u'blue']","[u'left', u'middle', u'right']","[0.8, 0.4, 0.2]","[u'high', u'low', u'medium']","black",49,"left","high","True","False",219,7250,NA
"AW0XXNPFHP7XD","Thu Oct 01 2020 08:43:14 GMT-0700 (Pacific Daylight Time)","Thu Oct 01 2020 08:50:17 GMT-0700 (Pacific Daylight Time)","Mozilla/5.0 (Windows NT 6.1; Win64; x64) AppleWebKit/537.36 (KHTML, like Gecko) Chrome/85.0.4183.121 Safari/537.36",111,"[0.9, 0.5, 0.1]","[0.8, 0.4, 0.2]","[u'black', u'red', u'blue']","[u'left', u'middle', u'right']","[0.8, 0.4, 0.2]","[u'high', u'low', u'medium']","black",49,"left","high","True","False",251,7350,NA
"AW0XXNPFHP7XD","Thu Oct 01 2020 08:43:14 GMT-0700 (Pacific Daylight Time)","Thu Oct 01 2020 08:50:17 GMT-0700 (Pacific Daylight Time)","Mozilla/5.0 (Windows NT 6.1; Win64; x64) AppleWebKit/537.36 (KHTML, like Gecko) Chrome/85.0.4183.121 Safari/537.36",112,"[0.9, 0.5, 0.1]","[0.8, 0.4, 0.2]","[u'black', u'red', u'blue']","[u'left', u'middle', u'right']","[0.8, 0.4, 0.2]","[u'high', u'low', u'medium']","black",49,"left","high","True","False",219,7450,NA
"AW0XXNPFHP7XD","Thu Oct 01 2020 08:43:14 GMT-0700 (Pacific Daylight Time)","Thu Oct 01 2020 08:50:17 GMT-0700 (Pacific Daylight Time)","Mozilla/5.0 (Windows NT 6.1; Win64; x64) AppleWebKit/537.36 (KHTML, like Gecko) Chrome/85.0.4183.121 Safari/537.36",113,"[0.9, 0.5, 0.1]","[0.8, 0.4, 0.2]","[u'black', u'red', u'blue']","[u'left', u'middle', u'right']","[0.8, 0.4, 0.2]","[u'high', u'low', u'medium']","black",49,"left","high","True","False",259,7550,NA
"AW0XXNPFHP7XD","Thu Oct 01 2020 08:43:14 GMT-0700 (Pacific Daylight Time)","Thu Oct 01 2020 08:50:17 GMT-0700 (Pacific Daylight Time)","Mozilla/5.0 (Windows NT 6.1; Win64; x64) AppleWebKit/537.36 (KHTML, like Gecko) Chrome/85.0.4183.121 Safari/537.36",114,"[0.9, 0.5, 0.1]","[0.8, 0.4, 0.2]","[u'black', u'red', u'blue']","[u'left', u'middle', u'right']","[0.8, 0.4, 0.2]","[u'high', u'low', u'medium']","black",49,"left","high","True","False",210,7650,NA
"AW0XXNPFHP7XD","Thu Oct 01 2020 08:43:14 GMT-0700 (Pacific Daylight Time)","Thu Oct 01 2020 08:50:17 GMT-0700 (Pacific Daylight Time)","Mozilla/5.0 (Windows NT 6.1; Win64; x64) AppleWebKit/537.36 (KHTML, like Gecko) Chrome/85.0.4183.121 Safari/537.36",115,"[0.9, 0.5, 0.1]","[0.8, 0.4, 0.2]","[u'black', u'red', u'blue']","[u'left', u'middle', u'right']","[0.8, 0.4, 0.2]","[u'high', u'low', u'medium']","black",49,"left","high","True","False",227,7750,NA
"AW0XXNPFHP7XD","Thu Oct 01 2020 08:43:14 GMT-0700 (Pacific Daylight Time)","Thu Oct 01 2020 08:50:17 GMT-0700 (Pacific Daylight Time)","Mozilla/5.0 (Windows NT 6.1; Win64; x64) AppleWebKit/537.36 (KHTML, like Gecko) Chrome/85.0.4183.121 Safari/537.36",116,"[0.9, 0.5, 0.1]","[0.8, 0.4, 0.2]","[u'black', u'red', u'blue']","[u'left', u'middle', u'right']","[0.8, 0.4, 0.2]","[u'high', u'low', u'medium']","black",49,"left","high","True","False",195,7850,NA
"AW0XXNPFHP7XD","Thu Oct 01 2020 08:43:14 GMT-0700 (Pacific Daylight Time)","Thu Oct 01 2020 08:50:17 GMT-0700 (Pacific Daylight Time)","Mozilla/5.0 (Windows NT 6.1; Win64; x64) AppleWebKit/537.36 (KHTML, like Gecko) Chrome/85.0.4183.121 Safari/537.36",117,"[0.9, 0.5, 0.1]","[0.8, 0.4, 0.2]","[u'black', u'red', u'blue']","[u'left', u'middle', u'right']","[0.8, 0.4, 0.2]","[u'high', u'low', u'medium']","black",49,"left","high","True","True",203,7950,NA
"AW0XXNPFHP7XD","Thu Oct 01 2020 08:43:14 GMT-0700 (Pacific Daylight Time)","Thu Oct 01 2020 08:50:17 GMT-0700 (Pacific Daylight Time)","Mozilla/5.0 (Windows NT 6.1; Win64; x64) AppleWebKit/537.36 (KHTML, like Gecko) Chrome/85.0.4183.121 Safari/537.36",118,"[0.9, 0.5, 0.1]","[0.8, 0.4, 0.2]","[u'black', u'red', u'blue']","[u'left', u'middle', u'right']","[0.8, 0.4, 0.2]","[u'medium', u'low', u'high']","black",49,"left","medium","True","False",178,8050,NA
"AW0XXNPFHP7XD","Thu Oct 01 2020 08:43:14 GMT-0700 (Pacific Daylight Time)","Thu Oct 01 2020 08:50:17 GMT-0700 (Pacific Daylight Time)","Mozilla/5.0 (Windows NT 6.1; Win64; x64) AppleWebKit/537.36 (KHTML, like Gecko) Chrome/85.0.4183.121 Safari/537.36",119,"[0.9, 0.5, 0.1]","[0.8, 0.4, 0.2]","[u'black', u'red', u'blue']","[u'left', u'middle', u'right']","[0.8, 0.4, 0.2]","[u'medium', u'low', u'high']","black",49,"left","medium","True","False",172,8150,NA
"AW0XXNPFHP7XD","Thu Oct 01 2020 08:43:14 GMT-0700 (Pacific Daylight Time)","Thu Oct 01 2020 08:50:17 GMT-0700 (Pacific Daylight Time)","Mozilla/5.0 (Windows NT 6.1; Win64; x64) AppleWebKit/537.36 (KHTML, like Gecko) Chrome/85.0.4183.121 Safari/537.36",120,"[0.9, 0.5, 0.1]","[0.8, 0.4, 0.2]","[u'black', u'red', u'blue']","[u'left', u'middle', u'right']","[0.8, 0.4, 0.2]","[u'medium', u'low', u'high']","black",49,"left","medium","False","False",234,8100,NA
"AW0XXNPFHP7XD","Thu Oct 01 2020 08:43:14 GMT-0700 (Pacific Daylight Time)","Thu Oct 01 2020 08:50:17 GMT-0700 (Pacific Daylight Time)","Mozilla/5.0 (Windows NT 6.1; Win64; x64) AppleWebKit/537.36 (KHTML, like Gecko) Chrome/85.0.4183.121 Safari/537.36",121,"[0.9, 0.5, 0.1]","[0.8, 0.4, 0.2]","[u'black', u'red', u'blue']","[u'left', u'middle', u'right']","[0.8, 0.4, 0.2]","[u'high', u'low', u'medium']","blue",51,"right","medium","True","False",249,8200,NA
"AW0XXNPFHP7XD","Thu Oct 01 2020 08:43:14 GMT-0700 (Pacific Daylight Time)","Thu Oct 01 2020 08:50:17 GMT-0700 (Pacific Daylight Time)","Mozilla/5.0 (Windows NT 6.1; Win64; x64) AppleWebKit/537.36 (KHTML, like Gecko) Chrome/85.0.4183.121 Safari/537.36",122,"[0.9, 0.5, 0.1]","[0.8, 0.4, 0.2]","[u'black', u'red', u'blue']","[u'left', u'middle', u'right']","[0.8, 0.4, 0.2]","[u'high', u'low', u'medium']","blue",51,"right","medium","True","False",183,8300,NA
"AW0XXNPFHP7XD","Thu Oct 01 2020 08:43:14 GMT-0700 (Pacific Daylight Time)","Thu Oct 01 2020 08:50:17 GMT-0700 (Pacific Daylight Time)","Mozilla/5.0 (Windows NT 6.1; Win64; x64) AppleWebKit/537.36 (KHTML, like Gecko) Chrome/85.0.4183.121 Safari/537.36",123,"[0.9, 0.5, 0.1]","[0.8, 0.4, 0.2]","[u'black', u'red', u'blue']","[u'left', u'middle', u'right']","[0.8, 0.4, 0.2]","[u'high', u'low', u'medium']","blue",51,"right","medium","False","False",218,8250,NA
"AW0XXNPFHP7XD","Thu Oct 01 2020 08:43:14 GMT-0700 (Pacific Daylight Time)","Thu Oct 01 2020 08:50:17 GMT-0700 (Pacific Daylight Time)","Mozilla/5.0 (Windows NT 6.1; Win64; x64) AppleWebKit/537.36 (KHTML, like Gecko) Chrome/85.0.4183.121 Safari/537.36",124,"[0.9, 0.5, 0.1]","[0.8, 0.4, 0.2]","[u'black', u'red', u'blue']","[u'left', u'middle', u'right']","[0.8, 0.4, 0.2]","[u'high', u'low', u'medium']","red",50,"middle","low","False","False",193,8200,NA
"AW0XXNPFHP7XD","Thu Oct 01 2020 08:43:14 GMT-0700 (Pacific Daylight Time)","Thu Oct 01 2020 08:50:17 GMT-0700 (Pacific Daylight Time)","Mozilla/5.0 (Windows NT 6.1; Win64; x64) AppleWebKit/537.36 (KHTML, like Gecko) Chrome/85.0.4183.121 Safari/537.36",125,"[0.9, 0.5, 0.1]","[0.8, 0.4, 0.2]","[u'black', u'red', u'blue']","[u'left', u'middle', u'right']","[0.8, 0.4, 0.2]","[u'high', u'low', u'medium']","black",49,"left","high","True","False",131,8300,NA
"AW0XXNPFHP7XD","Thu Oct 01 2020 08:43:14 GMT-0700 (Pacific Daylight Time)","Thu Oct 01 2020 08:50:17 GMT-0700 (Pacific Daylight Time)","Mozilla/5.0 (Windows NT 6.1; Win64; x64) AppleWebKit/537.36 (KHTML, like Gecko) Chrome/85.0.4183.121 Safari/537.36",126,"[0.9, 0.5, 0.1]","[0.8, 0.4, 0.2]","[u'black', u'red', u'blue']","[u'left', u'middle', u'right']","[0.8, 0.4, 0.2]","[u'high', u'low', u'medium']","black",49,"left","high","False","False",219,8250,NA
"AW0XXNPFHP7XD","Thu Oct 01 2020 08:43:14 GMT-0700 (Pacific Daylight Time)","Thu Oct 01 2020 08:50:17 GMT-0700 (Pacific Daylight Time)","Mozilla/5.0 (Windows NT 6.1; Win64; x64) AppleWebKit/537.36 (KHTML, like Gecko) Chrome/85.0.4183.121 Safari/537.36",127,"[0.9, 0.5, 0.1]","[0.8, 0.4, 0.2]","[u'black', u'red', u'blue']","[u'left', u'middle', u'right']","[0.8, 0.4, 0.2]","[u'high', u'low', u'medium']","blue",51,"right","medium","False","False",163,8200,NA
"AW0XXNPFHP7XD","Thu Oct 01 2020 08:43:14 GMT-0700 (Pacific Daylight Time)","Thu Oct 01 2020 08:50:17 GMT-0700 (Pacific Daylight Time)","Mozilla/5.0 (Windows NT 6.1; Win64; x64) AppleWebKit/537.36 (KHTML, like Gecko) Chrome/85.0.4183.121 Safari/537.36",128,"[0.9, 0.5, 0.1]","[0.8, 0.4, 0.2]","[u'black', u'red', u'blue']","[u'left', u'middle', u'right']","[0.8, 0.4, 0.2]","[u'high', u'low', u'medium']","black",49,"left","high","True","False",64,8300,NA
"AW0XXNPFHP7XD","Thu Oct 01 2020 08:43:14 GMT-0700 (Pacific Daylight Time)","Thu Oct 01 2020 08:50:17 GMT-0700 (Pacific Daylight Time)","Mozilla/5.0 (Windows NT 6.1; Win64; x64) AppleWebKit/537.36 (KHTML, like Gecko) Chrome/85.0.4183.121 Safari/537.36",129,"[0.9, 0.5, 0.1]","[0.8, 0.4, 0.2]","[u'black', u'red', u'blue']","[u'left', u'middle', u'right']","[0.8, 0.4, 0.2]","[u'high', u'low', u'medium']","black",49,"left","high","True","False",241,8400,NA
"AW0XXNPFHP7XD","Thu Oct 01 2020 08:43:14 GMT-0700 (Pacific Daylight Time)","Thu Oct 01 2020 08:50:17 GMT-0700 (Pacific Daylight Time)","Mozilla/5.0 (Windows NT 6.1; Win64; x64) AppleWebKit/537.36 (KHTML, like Gecko) Chrome/85.0.4183.121 Safari/537.36",130,"[0.9, 0.5, 0.1]","[0.8, 0.4, 0.2]","[u'black', u'red', u'blue']","[u'left', u'middle', u'right']","[0.8, 0.4, 0.2]","[u'high', u'low', u'medium']","black",49,"left","high","True","False",212,8500,NA
"AW0XXNPFHP7XD","Thu Oct 01 2020 08:43:14 GMT-0700 (Pacific Daylight Time)","Thu Oct 01 2020 08:50:17 GMT-0700 (Pacific Daylight Time)","Mozilla/5.0 (Windows NT 6.1; Win64; x64) AppleWebKit/537.36 (KHTML, like Gecko) Chrome/85.0.4183.121 Safari/537.36",131,"[0.9, 0.5, 0.1]","[0.8, 0.4, 0.2]","[u'black', u'red', u'blue']","[u'left', u'middle', u'right']","[0.8, 0.4, 0.2]","[u'high', u'low', u'medium']","black",49,"left","high","True","False",190,8600,NA
"AW0XXNPFHP7XD","Thu Oct 01 2020 08:43:14 GMT-0700 (Pacific Daylight Time)","Thu Oct 01 2020 08:50:17 GMT-0700 (Pacific Daylight Time)","Mozilla/5.0 (Windows NT 6.1; Win64; x64) AppleWebKit/537.36 (KHTML, like Gecko) Chrome/85.0.4183.121 Safari/537.36",132,"[0.9, 0.5, 0.1]","[0.8, 0.4, 0.2]","[u'black', u'red', u'blue']","[u'left', u'middle', u'right']","[0.8, 0.4, 0.2]","[u'high', u'low', u'medium']","black",49,"left","high","True","False",175,8700,NA
"AW0XXNPFHP7XD","Thu Oct 01 2020 08:43:14 GMT-0700 (Pacific Daylight Time)","Thu Oct 01 2020 08:50:17 GMT-0700 (Pacific Daylight Time)","Mozilla/5.0 (Windows NT 6.1; Win64; x64) AppleWebKit/537.36 (KHTML, like Gecko) Chrome/85.0.4183.121 Safari/537.36",133,"[0.9, 0.5, 0.1]","[0.8, 0.4, 0.2]","[u'black', u'red', u'blue']","[u'left', u'middle', u'right']","[0.8, 0.4, 0.2]","[u'high', u'low', u'medium']","black",49,"left","high","True","False",218,8800,NA
"AW0XXNPFHP7XD","Thu Oct 01 2020 08:43:14 GMT-0700 (Pacific Daylight Time)","Thu Oct 01 2020 08:50:17 GMT-0700 (Pacific Daylight Time)","Mozilla/5.0 (Windows NT 6.1; Win64; x64) AppleWebKit/537.36 (KHTML, like Gecko) Chrome/85.0.4183.121 Safari/537.36",134,"[0.9, 0.5, 0.1]","[0.8, 0.4, 0.2]","[u'black', u'red', u'blue']","[u'left', u'middle', u'right']","[0.8, 0.4, 0.2]","[u'high', u'low', u'medium']","black",49,"left","high","True","True",275,8900,NA
"AW0XXNPFHP7XD","Thu Oct 01 2020 08:43:14 GMT-0700 (Pacific Daylight Time)","Thu Oct 01 2020 08:50:17 GMT-0700 (Pacific Daylight Time)","Mozilla/5.0 (Windows NT 6.1; Win64; x64) AppleWebKit/537.36 (KHTML, like Gecko) Chrome/85.0.4183.121 Safari/537.36",135,"[0.9, 0.5, 0.1]","[0.8, 0.4, 0.2]","[u'black', u'red', u'blue']","[u'left', u'middle', u'right']","[0.8, 0.4, 0.2]","[u'medium', u'low', u'high']","black",49,"left","medium","False","False",287,8850,NA
"AW0XXNPFHP7XD","Thu Oct 01 2020 08:43:14 GMT-0700 (Pacific Daylight Time)","Thu Oct 01 2020 08:50:17 GMT-0700 (Pacific Daylight Time)","Mozilla/5.0 (Windows NT 6.1; Win64; x64) AppleWebKit/537.36 (KHTML, like Gecko) Chrome/85.0.4183.121 Safari/537.36",136,"[0.9, 0.5, 0.1]","[0.8, 0.4, 0.2]","[u'black', u'red', u'blue']","[u'left', u'middle', u'right']","[0.8, 0.4, 0.2]","[u'medium', u'low', u'high']","blue",51,"right","high","True","False",114,8950,NA
"AW0XXNPFHP7XD","Thu Oct 01 2020 08:43:14 GMT-0700 (Pacific Daylight Time)","Thu Oct 01 2020 08:50:17 GMT-0700 (Pacific Daylight Time)","Mozilla/5.0 (Windows NT 6.1; Win64; x64) AppleWebKit/537.36 (KHTML, like Gecko) Chrome/85.0.4183.121 Safari/537.36",137,"[0.9, 0.5, 0.1]","[0.8, 0.4, 0.2]","[u'black', u'red', u'blue']","[u'left', u'middle', u'right']","[0.8, 0.4, 0.2]","[u'medium', u'low', u'high']","blue",51,"right","high","True","False",185,9050,NA
"AW0XXNPFHP7XD","Thu Oct 01 2020 08:43:14 GMT-0700 (Pacific Daylight Time)","Thu Oct 01 2020 08:50:17 GMT-0700 (Pacific Daylight Time)","Mozilla/5.0 (Windows NT 6.1; Win64; x64) AppleWebKit/537.36 (KHTML, like Gecko) Chrome/85.0.4183.121 Safari/537.36",138,"[0.9, 0.5, 0.1]","[0.8, 0.4, 0.2]","[u'black', u'red', u'blue']","[u'left', u'middle', u'right']","[0.8, 0.4, 0.2]","[u'medium', u'low', u'high']","blue",51,"right","high","True","False",104,9150,NA
"AW0XXNPFHP7XD","Thu Oct 01 2020 08:43:14 GMT-0700 (Pacific Daylight Time)","Thu Oct 01 2020 08:50:17 GMT-0700 (Pacific Daylight Time)","Mozilla/5.0 (Windows NT 6.1; Win64; x64) AppleWebKit/537.36 (KHTML, like Gecko) Chrome/85.0.4183.121 Safari/537.36",139,"[0.9, 0.5, 0.1]","[0.8, 0.4, 0.2]","[u'black', u'red', u'blue']","[u'left', u'middle', u'right']","[0.8, 0.4, 0.2]","[u'medium', u'low', u'high']","blue",51,"right","high","False","False",139,9100,NA
"AW0XXNPFHP7XD","Thu Oct 01 2020 08:43:14 GMT-0700 (Pacific Daylight Time)","Thu Oct 01 2020 08:50:17 GMT-0700 (Pacific Daylight Time)","Mozilla/5.0 (Windows NT 6.1; Win64; x64) AppleWebKit/537.36 (KHTML, like Gecko) Chrome/85.0.4183.121 Safari/537.36",140,"[0.9, 0.5, 0.1]","[0.8, 0.4, 0.2]","[u'black', u'red', u'blue']","[u'left', u'middle', u'right']","[0.8, 0.4, 0.2]","[u'medium', u'low', u'high']","black",49,"left","medium","True","False",219,9200,NA
"AW0XXNPFHP7XD","Thu Oct 01 2020 08:43:14 GMT-0700 (Pacific Daylight Time)","Thu Oct 01 2020 08:50:17 GMT-0700 (Pacific Daylight Time)","Mozilla/5.0 (Windows NT 6.1; Win64; x64) AppleWebKit/537.36 (KHTML, like Gecko) Chrome/85.0.4183.121 Safari/537.36",141,"[0.9, 0.5, 0.1]","[0.8, 0.4, 0.2]","[u'black', u'red', u'blue']","[u'left', u'middle', u'right']","[0.8, 0.4, 0.2]","[u'medium', u'low', u'high']","black",49,"left","medium","True","False",162,9300,NA
"AW0XXNPFHP7XD","Thu Oct 01 2020 08:43:14 GMT-0700 (Pacific Daylight Time)","Thu Oct 01 2020 08:50:17 GMT-0700 (Pacific Daylight Time)","Mozilla/5.0 (Windows NT 6.1; Win64; x64) AppleWebKit/537.36 (KHTML, like Gecko) Chrome/85.0.4183.121 Safari/537.36",142,"[0.9, 0.5, 0.1]","[0.8, 0.4, 0.2]","[u'black', u'red', u'blue']","[u'left', u'middle', u'right']","[0.8, 0.4, 0.2]","[u'medium', u'low', u'high']","black",49,"left","medium","True","False",168,9400,NA
"AW0XXNPFHP7XD","Thu Oct 01 2020 08:43:14 GMT-0700 (Pacific Daylight Time)","Thu Oct 01 2020 08:50:17 GMT-0700 (Pacific Daylight Time)","Mozilla/5.0 (Windows NT 6.1; Win64; x64) AppleWebKit/537.36 (KHTML, like Gecko) Chrome/85.0.4183.121 Safari/537.36",143,"[0.9, 0.5, 0.1]","[0.8, 0.4, 0.2]","[u'black', u'red', u'blue']","[u'left', u'middle', u'right']","[0.8, 0.4, 0.2]","[u'medium', u'low', u'high']","black",49,"left","medium","False","False",122,9350,NA
"AW0XXNPFHP7XD","Thu Oct 01 2020 08:43:14 GMT-0700 (Pacific Daylight Time)","Thu Oct 01 2020 08:50:17 GMT-0700 (Pacific Daylight Time)","Mozilla/5.0 (Windows NT 6.1; Win64; x64) AppleWebKit/537.36 (KHTML, like Gecko) Chrome/85.0.4183.121 Safari/537.36",144,"[0.9, 0.5, 0.1]","[0.8, 0.4, 0.2]","[u'black', u'red', u'blue']","[u'left', u'middle', u'right']","[0.8, 0.4, 0.2]","[u'medium', u'low', u'high']","blue",51,"right","high","True","False",113,9450,NA
"AW0XXNPFHP7XD","Thu Oct 01 2020 08:43:14 GMT-0700 (Pacific Daylight Time)","Thu Oct 01 2020 08:50:17 GMT-0700 (Pacific Daylight Time)","Mozilla/5.0 (Windows NT 6.1; Win64; x64) AppleWebKit/537.36 (KHTML, like Gecko) Chrome/85.0.4183.121 Safari/537.36",145,"[0.9, 0.5, 0.1]","[0.8, 0.4, 0.2]","[u'black', u'red', u'blue']","[u'left', u'middle', u'right']","[0.8, 0.4, 0.2]","[u'medium', u'low', u'high']","blue",51,"right","high","True","False",127,9550,NA
"AW0XXNPFHP7XD","Thu Oct 01 2020 08:43:14 GMT-0700 (Pacific Daylight Time)","Thu Oct 01 2020 08:50:17 GMT-0700 (Pacific Daylight Time)","Mozilla/5.0 (Windows NT 6.1; Win64; x64) AppleWebKit/537.36 (KHTML, like Gecko) Chrome/85.0.4183.121 Safari/537.36",146,"[0.9, 0.5, 0.1]","[0.8, 0.4, 0.2]","[u'black', u'red', u'blue']","[u'left', u'middle', u'right']","[0.8, 0.4, 0.2]","[u'medium', u'low', u'high']","blue",51,"right","high","True","False",155,9650,NA
"AW0XXNPFHP7XD","Thu Oct 01 2020 08:43:14 GMT-0700 (Pacific Daylight Time)","Thu Oct 01 2020 08:50:17 GMT-0700 (Pacific Daylight Time)","Mozilla/5.0 (Windows NT 6.1; Win64; x64) AppleWebKit/537.36 (KHTML, like Gecko) Chrome/85.0.4183.121 Safari/537.36",147,"[0.9, 0.5, 0.1]","[0.8, 0.4, 0.2]","[u'black', u'red', u'blue']","[u'left', u'middle', u'right']","[0.8, 0.4, 0.2]","[u'medium', u'low', u'high']","blue",51,"right","high","False","False",562,9600,NA
"AW0XXNPFHP7XD","Thu Oct 01 2020 08:43:14 GMT-0700 (Pacific Daylight Time)","Thu Oct 01 2020 08:50:17 GMT-0700 (Pacific Daylight Time)","Mozilla/5.0 (Windows NT 6.1; Win64; x64) AppleWebKit/537.36 (KHTML, like Gecko) Chrome/85.0.4183.121 Safari/537.36",148,"[0.9, 0.5, 0.1]","[0.8, 0.4, 0.2]","[u'black', u'red', u'blue']","[u'left', u'middle', u'right']","[0.8, 0.4, 0.2]","[u'medium', u'low', u'high']","black",49,"left","medium","True","False",170,9700,NA
"AW0XXNPFHP7XD","Thu Oct 01 2020 08:43:14 GMT-0700 (Pacific Daylight Time)","Thu Oct 01 2020 08:50:17 GMT-0700 (Pacific Daylight Time)","Mozilla/5.0 (Windows NT 6.1; Win64; x64) AppleWebKit/537.36 (KHTML, like Gecko) Chrome/85.0.4183.121 Safari/537.36",149,"[0.9, 0.5, 0.1]","[0.8, 0.4, 0.2]","[u'black', u'red', u'blue']","[u'left', u'middle', u'right']","[0.8, 0.4, 0.2]","[u'medium', u'low', u'high']","black",49,"left","medium","False","False",226,9650,NA
"AW0XXNPFHP7XD","Thu Oct 01 2020 08:43:14 GMT-0700 (Pacific Daylight Time)","Thu Oct 01 2020 08:50:17 GMT-0700 (Pacific Daylight Time)","Mozilla/5.0 (Windows NT 6.1; Win64; x64) AppleWebKit/537.36 (KHTML, like Gecko) Chrome/85.0.4183.121 Safari/537.36",150,"[0.9, 0.5, 0.1]","[0.8, 0.4, 0.2]","[u'black', u'red', u'blue']","[u'left', u'middle', u'right']","[0.8, 0.4, 0.2]","[u'medium', u'low', u'high']","blue",51,"right","high","True","False",96,9750,NA
"AW0XXNPFHP7XD","Thu Oct 01 2020 08:43:14 GMT-0700 (Pacific Daylight Time)","Thu Oct 01 2020 08:50:17 GMT-0700 (Pacific Daylight Time)","Mozilla/5.0 (Windows NT 6.1; Win64; x64) AppleWebKit/537.36 (KHTML, like Gecko) Chrome/85.0.4183.121 Safari/537.36",151,"[0.9, 0.5, 0.1]","[0.8, 0.4, 0.2]","[u'black', u'red', u'blue']","[u'left', u'middle', u'right']","[0.8, 0.4, 0.2]","[u'medium', u'low', u'high']","blue",51,"right","high","True","False",186,9850,NA
"AW0XXNPFHP7XD","Thu Oct 01 2020 08:43:14 GMT-0700 (Pacific Daylight Time)","Thu Oct 01 2020 08:50:17 GMT-0700 (Pacific Daylight Time)","Mozilla/5.0 (Windows NT 6.1; Win64; x64) AppleWebKit/537.36 (KHTML, like Gecko) Chrome/85.0.4183.121 Safari/537.36",152,"[0.9, 0.5, 0.1]","[0.8, 0.4, 0.2]","[u'black', u'red', u'blue']","[u'left', u'middle', u'right']","[0.8, 0.4, 0.2]","[u'medium', u'low', u'high']","blue",51,"right","high","False","False",135,9800,NA
"AW0XXNPFHP7XD","Thu Oct 01 2020 08:43:14 GMT-0700 (Pacific Daylight Time)","Thu Oct 01 2020 08:50:17 GMT-0700 (Pacific Daylight Time)","Mozilla/5.0 (Windows NT 6.1; Win64; x64) AppleWebKit/537.36 (KHTML, like Gecko) Chrome/85.0.4183.121 Safari/537.36",153,"[0.9, 0.5, 0.1]","[0.8, 0.4, 0.2]","[u'black', u'red', u'blue']","[u'left', u'middle', u'right']","[0.8, 0.4, 0.2]","[u'medium', u'low', u'high']","black",49,"left","medium","True","False",225,9900,NA
"AW0XXNPFHP7XD","Thu Oct 01 2020 08:43:14 GMT-0700 (Pacific Daylight Time)","Thu Oct 01 2020 08:50:17 GMT-0700 (Pacific Daylight Time)","Mozilla/5.0 (Windows NT 6.1; Win64; x64) AppleWebKit/537.36 (KHTML, like Gecko) Chrome/85.0.4183.121 Safari/537.36",154,"[0.9, 0.5, 0.1]","[0.8, 0.4, 0.2]","[u'black', u'red', u'blue']","[u'left', u'middle', u'right']","[0.8, 0.4, 0.2]","[u'medium', u'low', u'high']","black",49,"left","medium","False","False",154,9850,NA
"AW0XXNPFHP7XD","Thu Oct 01 2020 08:43:14 GMT-0700 (Pacific Daylight Time)","Thu Oct 01 2020 08:50:17 GMT-0700 (Pacific Daylight Time)","Mozilla/5.0 (Windows NT 6.1; Win64; x64) AppleWebKit/537.36 (KHTML, like Gecko) Chrome/85.0.4183.121 Safari/537.36",155,"[0.9, 0.5, 0.1]","[0.8, 0.4, 0.2]","[u'black', u'red', u'blue']","[u'left', u'middle', u'right']","[0.8, 0.4, 0.2]","[u'medium', u'low', u'high']","blue",51,"right","high","True","False",195,9950,NA
"AW0XXNPFHP7XD","Thu Oct 01 2020 08:43:14 GMT-0700 (Pacific Daylight Time)","Thu Oct 01 2020 08:50:17 GMT-0700 (Pacific Daylight Time)","Mozilla/5.0 (Windows NT 6.1; Win64; x64) AppleWebKit/537.36 (KHTML, like Gecko) Chrome/85.0.4183.121 Safari/537.36",156,"[0.9, 0.5, 0.1]","[0.8, 0.4, 0.2]","[u'black', u'red', u'blue']","[u'left', u'middle', u'right']","[0.8, 0.4, 0.2]","[u'medium', u'low', u'high']","blue",51,"right","high","True","False",183,10050,NA
"AW0XXNPFHP7XD","Thu Oct 01 2020 08:43:14 GMT-0700 (Pacific Daylight Time)","Thu Oct 01 2020 08:50:17 GMT-0700 (Pacific Daylight Time)","Mozilla/5.0 (Windows NT 6.1; Win64; x64) AppleWebKit/537.36 (KHTML, like Gecko) Chrome/85.0.4183.121 Safari/537.36",157,"[0.9, 0.5, 0.1]","[0.8, 0.4, 0.2]","[u'black', u'red', u'blue']","[u'left', u'middle', u'right']","[0.8, 0.4, 0.2]","[u'medium', u'low', u'high']","blue",51,"right","high","True","False",217,10150,NA
"AW0XXNPFHP7XD","Thu Oct 01 2020 08:43:14 GMT-0700 (Pacific Daylight Time)","Thu Oct 01 2020 08:50:17 GMT-0700 (Pacific Daylight Time)","Mozilla/5.0 (Windows NT 6.1; Win64; x64) AppleWebKit/537.36 (KHTML, like Gecko) Chrome/85.0.4183.121 Safari/537.36",158,"[0.9, 0.5, 0.1]","[0.8, 0.4, 0.2]","[u'black', u'red', u'blue']","[u'left', u'middle', u'right']","[0.8, 0.4, 0.2]","[u'medium', u'low', u'high']","blue",51,"right","high","True","False",187,10250,NA
"AW0XXNPFHP7XD","Thu Oct 01 2020 08:43:14 GMT-0700 (Pacific Daylight Time)","Thu Oct 01 2020 08:50:17 GMT-0700 (Pacific Daylight Time)","Mozilla/5.0 (Windows NT 6.1; Win64; x64) AppleWebKit/537.36 (KHTML, like Gecko) Chrome/85.0.4183.121 Safari/537.36",159,"[0.9, 0.5, 0.1]","[0.8, 0.4, 0.2]","[u'black', u'red', u'blue']","[u'left', u'middle', u'right']","[0.8, 0.4, 0.2]","[u'medium', u'low', u'high']","blue",51,"right","high","True","False",210,10350,NA
"AW0XXNPFHP7XD","Thu Oct 01 2020 08:43:14 GMT-0700 (Pacific Daylight Time)","Thu Oct 01 2020 08:50:17 GMT-0700 (Pacific Daylight Time)","Mozilla/5.0 (Windows NT 6.1; Win64; x64) AppleWebKit/537.36 (KHTML, like Gecko) Chrome/85.0.4183.121 Safari/537.36",160,"[0.9, 0.5, 0.1]","[0.8, 0.4, 0.2]","[u'black', u'red', u'blue']","[u'left', u'middle', u'right']","[0.8, 0.4, 0.2]","[u'medium', u'low', u'high']","blue",51,"right","high","True","False",139,10450,NA
