"src_subject_id","start_time","end_time","browser","index","first_half_probabilities","second_half_probabilities","deck_color","deck_position","deck_probabilities","deck_contingencies","response_color","key_press","response_position","response_probability","reward_type","trial_type","rt","reward_tally","exclusion_reason"
"A23WCDJKAT0RN5","Thu Oct 01 2020 13:29:43 GMT-0400 (Eastern Daylight Time)","Thu Oct 01 2020 13:37:17 GMT-0400 (Eastern Daylight Time)","Mozilla/5.0 (Macintosh; Intel Mac OS X 10.11; rv:78.0) Gecko/20100101 Firefox/78.0",1,"[0.9, 0.5, 0.1]","[0.8, 0.4, 0.2]","[u'blue', u'red', u'black']","[u'left', u'middle', u'right']","[0.9, 0.5, 0.1]","[u'high', u'low', u'medium']","red",50,"middle","low","False","False",595,-50,NA
"A23WCDJKAT0RN5","Thu Oct 01 2020 13:29:43 GMT-0400 (Eastern Daylight Time)","Thu Oct 01 2020 13:37:17 GMT-0400 (Eastern Daylight Time)","Mozilla/5.0 (Macintosh; Intel Mac OS X 10.11; rv:78.0) Gecko/20100101 Firefox/78.0",2,"[0.9, 0.5, 0.1]","[0.8, 0.4, 0.2]","[u'blue', u'red', u'black']","[u'left', u'middle', u'right']","[0.9, 0.5, 0.1]","[u'high', u'low', u'medium']","blue",49,"left","high","True","False",1032,50,NA
"A23WCDJKAT0RN5","Thu Oct 01 2020 13:29:43 GMT-0400 (Eastern Daylight Time)","Thu Oct 01 2020 13:37:17 GMT-0400 (Eastern Daylight Time)","Mozilla/5.0 (Macintosh; Intel Mac OS X 10.11; rv:78.0) Gecko/20100101 Firefox/78.0",3,"[0.9, 0.5, 0.1]","[0.8, 0.4, 0.2]","[u'blue', u'red', u'black']","[u'left', u'middle', u'right']","[0.9, 0.5, 0.1]","[u'high', u'low', u'medium']","blue",49,"left","high","True","False",474,150,NA
"A23WCDJKAT0RN5","Thu Oct 01 2020 13:29:43 GMT-0400 (Eastern Daylight Time)","Thu Oct 01 2020 13:37:17 GMT-0400 (Eastern Daylight Time)","Mozilla/5.0 (Macintosh; Intel Mac OS X 10.11; rv:78.0) Gecko/20100101 Firefox/78.0",4,"[0.9, 0.5, 0.1]","[0.8, 0.4, 0.2]","[u'blue', u'red', u'black']","[u'left', u'middle', u'right']","[0.9, 0.5, 0.1]","[u'high', u'low', u'medium']","blue",49,"left","high","True","False",490,250,NA
"A23WCDJKAT0RN5","Thu Oct 01 2020 13:29:43 GMT-0400 (Eastern Daylight Time)","Thu Oct 01 2020 13:37:17 GMT-0400 (Eastern Daylight Time)","Mozilla/5.0 (Macintosh; Intel Mac OS X 10.11; rv:78.0) Gecko/20100101 Firefox/78.0",5,"[0.9, 0.5, 0.1]","[0.8, 0.4, 0.2]","[u'blue', u'red', u'black']","[u'left', u'middle', u'right']","[0.9, 0.5, 0.1]","[u'high', u'low', u'medium']","blue",49,"left","high","True","False",481,350,NA
"A23WCDJKAT0RN5","Thu Oct 01 2020 13:29:43 GMT-0400 (Eastern Daylight Time)","Thu Oct 01 2020 13:37:17 GMT-0400 (Eastern Daylight Time)","Mozilla/5.0 (Macintosh; Intel Mac OS X 10.11; rv:78.0) Gecko/20100101 Firefox/78.0",6,"[0.9, 0.5, 0.1]","[0.8, 0.4, 0.2]","[u'blue', u'red', u'black']","[u'left', u'middle', u'right']","[0.9, 0.5, 0.1]","[u'high', u'low', u'medium']","blue",49,"left","high","True","False",492,450,NA
"A23WCDJKAT0RN5","Thu Oct 01 2020 13:29:43 GMT-0400 (Eastern Daylight Time)","Thu Oct 01 2020 13:37:17 GMT-0400 (Eastern Daylight Time)","Mozilla/5.0 (Macintosh; Intel Mac OS X 10.11; rv:78.0) Gecko/20100101 Firefox/78.0",7,"[0.9, 0.5, 0.1]","[0.8, 0.4, 0.2]","[u'blue', u'red', u'black']","[u'left', u'middle', u'right']","[0.9, 0.5, 0.1]","[u'high', u'low', u'medium']","blue",49,"left","high","False","False",446,400,NA
"A23WCDJKAT0RN5","Thu Oct 01 2020 13:29:43 GMT-0400 (Eastern Daylight Time)","Thu Oct 01 2020 13:37:17 GMT-0400 (Eastern Daylight Time)","Mozilla/5.0 (Macintosh; Intel Mac OS X 10.11; rv:78.0) Gecko/20100101 Firefox/78.0",8,"[0.9, 0.5, 0.1]","[0.8, 0.4, 0.2]","[u'blue', u'red', u'black']","[u'left', u'middle', u'right']","[0.9, 0.5, 0.1]","[u'high', u'low', u'medium']","red",50,"middle","low","False","False",487,350,NA
"A23WCDJKAT0RN5","Thu Oct 01 2020 13:29:43 GMT-0400 (Eastern Daylight Time)","Thu Oct 01 2020 13:37:17 GMT-0400 (Eastern Daylight Time)","Mozilla/5.0 (Macintosh; Intel Mac OS X 10.11; rv:78.0) Gecko/20100101 Firefox/78.0",9,"[0.9, 0.5, 0.1]","[0.8, 0.4, 0.2]","[u'blue', u'red', u'black']","[u'left', u'middle', u'right']","[0.9, 0.5, 0.1]","[u'high', u'low', u'medium']","black",51,"right","medium","False","False",385,300,NA
"A23WCDJKAT0RN5","Thu Oct 01 2020 13:29:43 GMT-0400 (Eastern Daylight Time)","Thu Oct 01 2020 13:37:17 GMT-0400 (Eastern Daylight Time)","Mozilla/5.0 (Macintosh; Intel Mac OS X 10.11; rv:78.0) Gecko/20100101 Firefox/78.0",10,"[0.9, 0.5, 0.1]","[0.8, 0.4, 0.2]","[u'blue', u'red', u'black']","[u'left', u'middle', u'right']","[0.9, 0.5, 0.1]","[u'high', u'low', u'medium']","blue",49,"left","high","True","False",288,400,NA
"A23WCDJKAT0RN5","Thu Oct 01 2020 13:29:43 GMT-0400 (Eastern Daylight Time)","Thu Oct 01 2020 13:37:17 GMT-0400 (Eastern Daylight Time)","Mozilla/5.0 (Macintosh; Intel Mac OS X 10.11; rv:78.0) Gecko/20100101 Firefox/78.0",11,"[0.9, 0.5, 0.1]","[0.8, 0.4, 0.2]","[u'blue', u'red', u'black']","[u'left', u'middle', u'right']","[0.9, 0.5, 0.1]","[u'high', u'low', u'medium']","blue",49,"left","high","True","False",329,500,NA
"A23WCDJKAT0RN5","Thu Oct 01 2020 13:29:43 GMT-0400 (Eastern Daylight Time)","Thu Oct 01 2020 13:37:17 GMT-0400 (Eastern Daylight Time)","Mozilla/5.0 (Macintosh; Intel Mac OS X 10.11; rv:78.0) Gecko/20100101 Firefox/78.0",12,"[0.9, 0.5, 0.1]","[0.8, 0.4, 0.2]","[u'blue', u'red', u'black']","[u'left', u'middle', u'right']","[0.9, 0.5, 0.1]","[u'high', u'low', u'medium']","blue",49,"left","high","False","False",354,450,NA
"A23WCDJKAT0RN5","Thu Oct 01 2020 13:29:43 GMT-0400 (Eastern Daylight Time)","Thu Oct 01 2020 13:37:17 GMT-0400 (Eastern Daylight Time)","Mozilla/5.0 (Macintosh; Intel Mac OS X 10.11; rv:78.0) Gecko/20100101 Firefox/78.0",13,"[0.9, 0.5, 0.1]","[0.8, 0.4, 0.2]","[u'blue', u'red', u'black']","[u'left', u'middle', u'right']","[0.9, 0.5, 0.1]","[u'high', u'low', u'medium']","blue",49,"left","high","True","False",393,550,NA
"A23WCDJKAT0RN5","Thu Oct 01 2020 13:29:43 GMT-0400 (Eastern Daylight Time)","Thu Oct 01 2020 13:37:17 GMT-0400 (Eastern Daylight Time)","Mozilla/5.0 (Macintosh; Intel Mac OS X 10.11; rv:78.0) Gecko/20100101 Firefox/78.0",14,"[0.9, 0.5, 0.1]","[0.8, 0.4, 0.2]","[u'blue', u'red', u'black']","[u'left', u'middle', u'right']","[0.9, 0.5, 0.1]","[u'high', u'low', u'medium']","blue",49,"left","high","True","False",416,650,NA
"A23WCDJKAT0RN5","Thu Oct 01 2020 13:29:43 GMT-0400 (Eastern Daylight Time)","Thu Oct 01 2020 13:37:17 GMT-0400 (Eastern Daylight Time)","Mozilla/5.0 (Macintosh; Intel Mac OS X 10.11; rv:78.0) Gecko/20100101 Firefox/78.0",15,"[0.9, 0.5, 0.1]","[0.8, 0.4, 0.2]","[u'blue', u'red', u'black']","[u'left', u'middle', u'right']","[0.9, 0.5, 0.1]","[u'high', u'low', u'medium']","red",50,"middle","low","False","False",375,600,NA
"A23WCDJKAT0RN5","Thu Oct 01 2020 13:29:43 GMT-0400 (Eastern Daylight Time)","Thu Oct 01 2020 13:37:17 GMT-0400 (Eastern Daylight Time)","Mozilla/5.0 (Macintosh; Intel Mac OS X 10.11; rv:78.0) Gecko/20100101 Firefox/78.0",16,"[0.9, 0.5, 0.1]","[0.8, 0.4, 0.2]","[u'blue', u'red', u'black']","[u'left', u'middle', u'right']","[0.9, 0.5, 0.1]","[u'high', u'low', u'medium']","blue",49,"left","high","True","False",315,700,NA
"A23WCDJKAT0RN5","Thu Oct 01 2020 13:29:43 GMT-0400 (Eastern Daylight Time)","Thu Oct 01 2020 13:37:17 GMT-0400 (Eastern Daylight Time)","Mozilla/5.0 (Macintosh; Intel Mac OS X 10.11; rv:78.0) Gecko/20100101 Firefox/78.0",17,"[0.9, 0.5, 0.1]","[0.8, 0.4, 0.2]","[u'blue', u'red', u'black']","[u'left', u'middle', u'right']","[0.9, 0.5, 0.1]","[u'high', u'low', u'medium']","blue",49,"left","high","True","False",439,800,NA
"A23WCDJKAT0RN5","Thu Oct 01 2020 13:29:43 GMT-0400 (Eastern Daylight Time)","Thu Oct 01 2020 13:37:17 GMT-0400 (Eastern Daylight Time)","Mozilla/5.0 (Macintosh; Intel Mac OS X 10.11; rv:78.0) Gecko/20100101 Firefox/78.0",18,"[0.9, 0.5, 0.1]","[0.8, 0.4, 0.2]","[u'blue', u'red', u'black']","[u'left', u'middle', u'right']","[0.9, 0.5, 0.1]","[u'high', u'low', u'medium']","blue",49,"left","high","True","False",312,900,NA
"A23WCDJKAT0RN5","Thu Oct 01 2020 13:29:43 GMT-0400 (Eastern Daylight Time)","Thu Oct 01 2020 13:37:17 GMT-0400 (Eastern Daylight Time)","Mozilla/5.0 (Macintosh; Intel Mac OS X 10.11; rv:78.0) Gecko/20100101 Firefox/78.0",19,"[0.9, 0.5, 0.1]","[0.8, 0.4, 0.2]","[u'blue', u'red', u'black']","[u'left', u'middle', u'right']","[0.9, 0.5, 0.1]","[u'high', u'low', u'medium']","blue",49,"left","high","True","True",273,1000,NA
"A23WCDJKAT0RN5","Thu Oct 01 2020 13:29:43 GMT-0400 (Eastern Daylight Time)","Thu Oct 01 2020 13:37:17 GMT-0400 (Eastern Daylight Time)","Mozilla/5.0 (Macintosh; Intel Mac OS X 10.11; rv:78.0) Gecko/20100101 Firefox/78.0",20,"[0.9, 0.5, 0.1]","[0.8, 0.4, 0.2]","[u'blue', u'red', u'black']","[u'left', u'middle', u'right']","[0.9, 0.5, 0.1]","[u'medium', u'high', u'low']","blue",49,"left","medium","False","False",296,950,NA
"A23WCDJKAT0RN5","Thu Oct 01 2020 13:29:43 GMT-0400 (Eastern Daylight Time)","Thu Oct 01 2020 13:37:17 GMT-0400 (Eastern Daylight Time)","Mozilla/5.0 (Macintosh; Intel Mac OS X 10.11; rv:78.0) Gecko/20100101 Firefox/78.0",21,"[0.9, 0.5, 0.1]","[0.8, 0.4, 0.2]","[u'blue', u'red', u'black']","[u'left', u'middle', u'right']","[0.9, 0.5, 0.1]","[u'medium', u'high', u'low']","blue",49,"left","medium","False","False",227,900,NA
"A23WCDJKAT0RN5","Thu Oct 01 2020 13:29:43 GMT-0400 (Eastern Daylight Time)","Thu Oct 01 2020 13:37:17 GMT-0400 (Eastern Daylight Time)","Mozilla/5.0 (Macintosh; Intel Mac OS X 10.11; rv:78.0) Gecko/20100101 Firefox/78.0",22,"[0.9, 0.5, 0.1]","[0.8, 0.4, 0.2]","[u'blue', u'red', u'black']","[u'left', u'middle', u'right']","[0.9, 0.5, 0.1]","[u'medium', u'high', u'low']","blue",49,"left","medium","False","False",279,850,NA
"A23WCDJKAT0RN5","Thu Oct 01 2020 13:29:43 GMT-0400 (Eastern Daylight Time)","Thu Oct 01 2020 13:37:17 GMT-0400 (Eastern Daylight Time)","Mozilla/5.0 (Macintosh; Intel Mac OS X 10.11; rv:78.0) Gecko/20100101 Firefox/78.0",23,"[0.9, 0.5, 0.1]","[0.8, 0.4, 0.2]","[u'blue', u'red', u'black']","[u'left', u'middle', u'right']","[0.9, 0.5, 0.1]","[u'medium', u'high', u'low']","red",50,"middle","high","True","False",384,950,NA
"A23WCDJKAT0RN5","Thu Oct 01 2020 13:29:43 GMT-0400 (Eastern Daylight Time)","Thu Oct 01 2020 13:37:17 GMT-0400 (Eastern Daylight Time)","Mozilla/5.0 (Macintosh; Intel Mac OS X 10.11; rv:78.0) Gecko/20100101 Firefox/78.0",24,"[0.9, 0.5, 0.1]","[0.8, 0.4, 0.2]","[u'blue', u'red', u'black']","[u'left', u'middle', u'right']","[0.9, 0.5, 0.1]","[u'medium', u'high', u'low']","red",50,"middle","high","True","False",273,1050,NA
"A23WCDJKAT0RN5","Thu Oct 01 2020 13:29:43 GMT-0400 (Eastern Daylight Time)","Thu Oct 01 2020 13:37:17 GMT-0400 (Eastern Daylight Time)","Mozilla/5.0 (Macintosh; Intel Mac OS X 10.11; rv:78.0) Gecko/20100101 Firefox/78.0",25,"[0.9, 0.5, 0.1]","[0.8, 0.4, 0.2]","[u'blue', u'red', u'black']","[u'left', u'middle', u'right']","[0.9, 0.5, 0.1]","[u'medium', u'high', u'low']","red",50,"middle","high","True","False",335,1150,NA
"A23WCDJKAT0RN5","Thu Oct 01 2020 13:29:43 GMT-0400 (Eastern Daylight Time)","Thu Oct 01 2020 13:37:17 GMT-0400 (Eastern Daylight Time)","Mozilla/5.0 (Macintosh; Intel Mac OS X 10.11; rv:78.0) Gecko/20100101 Firefox/78.0",26,"[0.9, 0.5, 0.1]","[0.8, 0.4, 0.2]","[u'blue', u'red', u'black']","[u'left', u'middle', u'right']","[0.9, 0.5, 0.1]","[u'medium', u'high', u'low']","red",50,"middle","high","True","False",263,1250,NA
"A23WCDJKAT0RN5","Thu Oct 01 2020 13:29:43 GMT-0400 (Eastern Daylight Time)","Thu Oct 01 2020 13:37:17 GMT-0400 (Eastern Daylight Time)","Mozilla/5.0 (Macintosh; Intel Mac OS X 10.11; rv:78.0) Gecko/20100101 Firefox/78.0",27,"[0.9, 0.5, 0.1]","[0.8, 0.4, 0.2]","[u'blue', u'red', u'black']","[u'left', u'middle', u'right']","[0.9, 0.5, 0.1]","[u'medium', u'high', u'low']","red",50,"middle","high","True","False",288,1350,NA
"A23WCDJKAT0RN5","Thu Oct 01 2020 13:29:43 GMT-0400 (Eastern Daylight Time)","Thu Oct 01 2020 13:37:17 GMT-0400 (Eastern Daylight Time)","Mozilla/5.0 (Macintosh; Intel Mac OS X 10.11; rv:78.0) Gecko/20100101 Firefox/78.0",28,"[0.9, 0.5, 0.1]","[0.8, 0.4, 0.2]","[u'blue', u'red', u'black']","[u'left', u'middle', u'right']","[0.9, 0.5, 0.1]","[u'medium', u'high', u'low']","red",50,"middle","high","True","False",343,1450,NA
"A23WCDJKAT0RN5","Thu Oct 01 2020 13:29:43 GMT-0400 (Eastern Daylight Time)","Thu Oct 01 2020 13:37:17 GMT-0400 (Eastern Daylight Time)","Mozilla/5.0 (Macintosh; Intel Mac OS X 10.11; rv:78.0) Gecko/20100101 Firefox/78.0",29,"[0.9, 0.5, 0.1]","[0.8, 0.4, 0.2]","[u'blue', u'red', u'black']","[u'left', u'middle', u'right']","[0.9, 0.5, 0.1]","[u'medium', u'high', u'low']","red",50,"middle","high","True","False",272,1550,NA
"A23WCDJKAT0RN5","Thu Oct 01 2020 13:29:43 GMT-0400 (Eastern Daylight Time)","Thu Oct 01 2020 13:37:17 GMT-0400 (Eastern Daylight Time)","Mozilla/5.0 (Macintosh; Intel Mac OS X 10.11; rv:78.0) Gecko/20100101 Firefox/78.0",30,"[0.9, 0.5, 0.1]","[0.8, 0.4, 0.2]","[u'blue', u'red', u'black']","[u'left', u'middle', u'right']","[0.9, 0.5, 0.1]","[u'medium', u'high', u'low']","red",50,"middle","high","True","False",215,1650,NA
"A23WCDJKAT0RN5","Thu Oct 01 2020 13:29:43 GMT-0400 (Eastern Daylight Time)","Thu Oct 01 2020 13:37:17 GMT-0400 (Eastern Daylight Time)","Mozilla/5.0 (Macintosh; Intel Mac OS X 10.11; rv:78.0) Gecko/20100101 Firefox/78.0",31,"[0.9, 0.5, 0.1]","[0.8, 0.4, 0.2]","[u'blue', u'red', u'black']","[u'left', u'middle', u'right']","[0.9, 0.5, 0.1]","[u'medium', u'high', u'low']","red",50,"middle","high","True","True",250,1750,NA
"A23WCDJKAT0RN5","Thu Oct 01 2020 13:29:43 GMT-0400 (Eastern Daylight Time)","Thu Oct 01 2020 13:37:17 GMT-0400 (Eastern Daylight Time)","Mozilla/5.0 (Macintosh; Intel Mac OS X 10.11; rv:78.0) Gecko/20100101 Firefox/78.0",32,"[0.9, 0.5, 0.1]","[0.8, 0.4, 0.2]","[u'blue', u'red', u'black']","[u'left', u'middle', u'right']","[0.9, 0.5, 0.1]","[u'low', u'medium', u'high']","red",50,"middle","medium","False","False",184,1700,NA
"A23WCDJKAT0RN5","Thu Oct 01 2020 13:29:43 GMT-0400 (Eastern Daylight Time)","Thu Oct 01 2020 13:37:17 GMT-0400 (Eastern Daylight Time)","Mozilla/5.0 (Macintosh; Intel Mac OS X 10.11; rv:78.0) Gecko/20100101 Firefox/78.0",33,"[0.9, 0.5, 0.1]","[0.8, 0.4, 0.2]","[u'blue', u'red', u'black']","[u'left', u'middle', u'right']","[0.9, 0.5, 0.1]","[u'low', u'medium', u'high']","blue",49,"left","low","False","False",94,1650,NA
"A23WCDJKAT0RN5","Thu Oct 01 2020 13:29:43 GMT-0400 (Eastern Daylight Time)","Thu Oct 01 2020 13:37:17 GMT-0400 (Eastern Daylight Time)","Mozilla/5.0 (Macintosh; Intel Mac OS X 10.11; rv:78.0) Gecko/20100101 Firefox/78.0",34,"[0.9, 0.5, 0.1]","[0.8, 0.4, 0.2]","[u'blue', u'red', u'black']","[u'left', u'middle', u'right']","[0.9, 0.5, 0.1]","[u'low', u'medium', u'high']","black",51,"right","high","True","False",168,1750,NA
"A23WCDJKAT0RN5","Thu Oct 01 2020 13:29:43 GMT-0400 (Eastern Daylight Time)","Thu Oct 01 2020 13:37:17 GMT-0400 (Eastern Daylight Time)","Mozilla/5.0 (Macintosh; Intel Mac OS X 10.11; rv:78.0) Gecko/20100101 Firefox/78.0",35,"[0.9, 0.5, 0.1]","[0.8, 0.4, 0.2]","[u'blue', u'red', u'black']","[u'left', u'middle', u'right']","[0.9, 0.5, 0.1]","[u'low', u'medium', u'high']","black",51,"right","high","False","False",247,1700,NA
"A23WCDJKAT0RN5","Thu Oct 01 2020 13:29:43 GMT-0400 (Eastern Daylight Time)","Thu Oct 01 2020 13:37:17 GMT-0400 (Eastern Daylight Time)","Mozilla/5.0 (Macintosh; Intel Mac OS X 10.11; rv:78.0) Gecko/20100101 Firefox/78.0",36,"[0.9, 0.5, 0.1]","[0.8, 0.4, 0.2]","[u'blue', u'red', u'black']","[u'left', u'middle', u'right']","[0.9, 0.5, 0.1]","[u'low', u'medium', u'high']","red",50,"middle","medium","False","False",266,1650,NA
"A23WCDJKAT0RN5","Thu Oct 01 2020 13:29:43 GMT-0400 (Eastern Daylight Time)","Thu Oct 01 2020 13:37:17 GMT-0400 (Eastern Daylight Time)","Mozilla/5.0 (Macintosh; Intel Mac OS X 10.11; rv:78.0) Gecko/20100101 Firefox/78.0",37,"[0.9, 0.5, 0.1]","[0.8, 0.4, 0.2]","[u'blue', u'red', u'black']","[u'left', u'middle', u'right']","[0.9, 0.5, 0.1]","[u'low', u'medium', u'high']","blue",49,"left","low","True","False",247,1750,NA
"A23WCDJKAT0RN5","Thu Oct 01 2020 13:29:43 GMT-0400 (Eastern Daylight Time)","Thu Oct 01 2020 13:37:17 GMT-0400 (Eastern Daylight Time)","Mozilla/5.0 (Macintosh; Intel Mac OS X 10.11; rv:78.0) Gecko/20100101 Firefox/78.0",38,"[0.9, 0.5, 0.1]","[0.8, 0.4, 0.2]","[u'blue', u'red', u'black']","[u'left', u'middle', u'right']","[0.9, 0.5, 0.1]","[u'low', u'medium', u'high']","blue",49,"left","low","False","False",280,1700,NA
"A23WCDJKAT0RN5","Thu Oct 01 2020 13:29:43 GMT-0400 (Eastern Daylight Time)","Thu Oct 01 2020 13:37:17 GMT-0400 (Eastern Daylight Time)","Mozilla/5.0 (Macintosh; Intel Mac OS X 10.11; rv:78.0) Gecko/20100101 Firefox/78.0",39,"[0.9, 0.5, 0.1]","[0.8, 0.4, 0.2]","[u'blue', u'red', u'black']","[u'left', u'middle', u'right']","[0.9, 0.5, 0.1]","[u'low', u'medium', u'high']","black",51,"right","high","True","False",312,1800,NA
"A23WCDJKAT0RN5","Thu Oct 01 2020 13:29:43 GMT-0400 (Eastern Daylight Time)","Thu Oct 01 2020 13:37:17 GMT-0400 (Eastern Daylight Time)","Mozilla/5.0 (Macintosh; Intel Mac OS X 10.11; rv:78.0) Gecko/20100101 Firefox/78.0",40,"[0.9, 0.5, 0.1]","[0.8, 0.4, 0.2]","[u'blue', u'red', u'black']","[u'left', u'middle', u'right']","[0.9, 0.5, 0.1]","[u'low', u'medium', u'high']","black",51,"right","high","True","False",255,1900,NA
"A23WCDJKAT0RN5","Thu Oct 01 2020 13:29:43 GMT-0400 (Eastern Daylight Time)","Thu Oct 01 2020 13:37:17 GMT-0400 (Eastern Daylight Time)","Mozilla/5.0 (Macintosh; Intel Mac OS X 10.11; rv:78.0) Gecko/20100101 Firefox/78.0",41,"[0.9, 0.5, 0.1]","[0.8, 0.4, 0.2]","[u'blue', u'red', u'black']","[u'left', u'middle', u'right']","[0.9, 0.5, 0.1]","[u'high', u'medium', u'low']","black",51,"right","low","False","False",911,1850,NA
"A23WCDJKAT0RN5","Thu Oct 01 2020 13:29:43 GMT-0400 (Eastern Daylight Time)","Thu Oct 01 2020 13:37:17 GMT-0400 (Eastern Daylight Time)","Mozilla/5.0 (Macintosh; Intel Mac OS X 10.11; rv:78.0) Gecko/20100101 Firefox/78.0",42,"[0.9, 0.5, 0.1]","[0.8, 0.4, 0.2]","[u'blue', u'red', u'black']","[u'left', u'middle', u'right']","[0.9, 0.5, 0.1]","[u'high', u'medium', u'low']","red",50,"middle","medium","True","False",328,1950,NA
"A23WCDJKAT0RN5","Thu Oct 01 2020 13:29:43 GMT-0400 (Eastern Daylight Time)","Thu Oct 01 2020 13:37:17 GMT-0400 (Eastern Daylight Time)","Mozilla/5.0 (Macintosh; Intel Mac OS X 10.11; rv:78.0) Gecko/20100101 Firefox/78.0",43,"[0.9, 0.5, 0.1]","[0.8, 0.4, 0.2]","[u'blue', u'red', u'black']","[u'left', u'middle', u'right']","[0.9, 0.5, 0.1]","[u'high', u'medium', u'low']","red",50,"middle","medium","True","False",286,2050,NA
"A23WCDJKAT0RN5","Thu Oct 01 2020 13:29:43 GMT-0400 (Eastern Daylight Time)","Thu Oct 01 2020 13:37:17 GMT-0400 (Eastern Daylight Time)","Mozilla/5.0 (Macintosh; Intel Mac OS X 10.11; rv:78.0) Gecko/20100101 Firefox/78.0",44,"[0.9, 0.5, 0.1]","[0.8, 0.4, 0.2]","[u'blue', u'red', u'black']","[u'left', u'middle', u'right']","[0.9, 0.5, 0.1]","[u'high', u'medium', u'low']","red",50,"middle","medium","True","False",263,2150,NA
"A23WCDJKAT0RN5","Thu Oct 01 2020 13:29:43 GMT-0400 (Eastern Daylight Time)","Thu Oct 01 2020 13:37:17 GMT-0400 (Eastern Daylight Time)","Mozilla/5.0 (Macintosh; Intel Mac OS X 10.11; rv:78.0) Gecko/20100101 Firefox/78.0",45,"[0.9, 0.5, 0.1]","[0.8, 0.4, 0.2]","[u'blue', u'red', u'black']","[u'left', u'middle', u'right']","[0.9, 0.5, 0.1]","[u'high', u'medium', u'low']","red",50,"middle","medium","True","False",272,2250,NA
"A23WCDJKAT0RN5","Thu Oct 01 2020 13:29:43 GMT-0400 (Eastern Daylight Time)","Thu Oct 01 2020 13:37:17 GMT-0400 (Eastern Daylight Time)","Mozilla/5.0 (Macintosh; Intel Mac OS X 10.11; rv:78.0) Gecko/20100101 Firefox/78.0",46,"[0.9, 0.5, 0.1]","[0.8, 0.4, 0.2]","[u'blue', u'red', u'black']","[u'left', u'middle', u'right']","[0.9, 0.5, 0.1]","[u'high', u'medium', u'low']","red",50,"middle","medium","True","False",264,2350,NA
"A23WCDJKAT0RN5","Thu Oct 01 2020 13:29:43 GMT-0400 (Eastern Daylight Time)","Thu Oct 01 2020 13:37:17 GMT-0400 (Eastern Daylight Time)","Mozilla/5.0 (Macintosh; Intel Mac OS X 10.11; rv:78.0) Gecko/20100101 Firefox/78.0",47,"[0.9, 0.5, 0.1]","[0.8, 0.4, 0.2]","[u'blue', u'red', u'black']","[u'left', u'middle', u'right']","[0.9, 0.5, 0.1]","[u'high', u'medium', u'low']","red",50,"middle","medium","False","False",305,2300,NA
"A23WCDJKAT0RN5","Thu Oct 01 2020 13:29:43 GMT-0400 (Eastern Daylight Time)","Thu Oct 01 2020 13:37:17 GMT-0400 (Eastern Daylight Time)","Mozilla/5.0 (Macintosh; Intel Mac OS X 10.11; rv:78.0) Gecko/20100101 Firefox/78.0",48,"[0.9, 0.5, 0.1]","[0.8, 0.4, 0.2]","[u'blue', u'red', u'black']","[u'left', u'middle', u'right']","[0.9, 0.5, 0.1]","[u'high', u'medium', u'low']","blue",49,"left","high","True","False",307,2400,NA
"A23WCDJKAT0RN5","Thu Oct 01 2020 13:29:43 GMT-0400 (Eastern Daylight Time)","Thu Oct 01 2020 13:37:17 GMT-0400 (Eastern Daylight Time)","Mozilla/5.0 (Macintosh; Intel Mac OS X 10.11; rv:78.0) Gecko/20100101 Firefox/78.0",49,"[0.9, 0.5, 0.1]","[0.8, 0.4, 0.2]","[u'blue', u'red', u'black']","[u'left', u'middle', u'right']","[0.9, 0.5, 0.1]","[u'high', u'medium', u'low']","blue",49,"left","high","False","False",264,2350,NA
"A23WCDJKAT0RN5","Thu Oct 01 2020 13:29:43 GMT-0400 (Eastern Daylight Time)","Thu Oct 01 2020 13:37:17 GMT-0400 (Eastern Daylight Time)","Mozilla/5.0 (Macintosh; Intel Mac OS X 10.11; rv:78.0) Gecko/20100101 Firefox/78.0",50,"[0.9, 0.5, 0.1]","[0.8, 0.4, 0.2]","[u'blue', u'red', u'black']","[u'left', u'middle', u'right']","[0.9, 0.5, 0.1]","[u'high', u'medium', u'low']","red",50,"middle","medium","False","False",257,2300,NA
"A23WCDJKAT0RN5","Thu Oct 01 2020 13:29:43 GMT-0400 (Eastern Daylight Time)","Thu Oct 01 2020 13:37:17 GMT-0400 (Eastern Daylight Time)","Mozilla/5.0 (Macintosh; Intel Mac OS X 10.11; rv:78.0) Gecko/20100101 Firefox/78.0",51,"[0.9, 0.5, 0.1]","[0.8, 0.4, 0.2]","[u'blue', u'red', u'black']","[u'left', u'middle', u'right']","[0.9, 0.5, 0.1]","[u'high', u'medium', u'low']","black",51,"right","low","False","False",279,2250,NA
"A23WCDJKAT0RN5","Thu Oct 01 2020 13:29:43 GMT-0400 (Eastern Daylight Time)","Thu Oct 01 2020 13:37:17 GMT-0400 (Eastern Daylight Time)","Mozilla/5.0 (Macintosh; Intel Mac OS X 10.11; rv:78.0) Gecko/20100101 Firefox/78.0",52,"[0.9, 0.5, 0.1]","[0.8, 0.4, 0.2]","[u'blue', u'red', u'black']","[u'left', u'middle', u'right']","[0.9, 0.5, 0.1]","[u'high', u'medium', u'low']","blue",49,"left","high","True","False",231,2350,NA
"A23WCDJKAT0RN5","Thu Oct 01 2020 13:29:43 GMT-0400 (Eastern Daylight Time)","Thu Oct 01 2020 13:37:17 GMT-0400 (Eastern Daylight Time)","Mozilla/5.0 (Macintosh; Intel Mac OS X 10.11; rv:78.0) Gecko/20100101 Firefox/78.0",53,"[0.9, 0.5, 0.1]","[0.8, 0.4, 0.2]","[u'blue', u'red', u'black']","[u'left', u'middle', u'right']","[0.9, 0.5, 0.1]","[u'high', u'medium', u'low']","blue",49,"left","high","True","False",257,2450,NA
"A23WCDJKAT0RN5","Thu Oct 01 2020 13:29:43 GMT-0400 (Eastern Daylight Time)","Thu Oct 01 2020 13:37:17 GMT-0400 (Eastern Daylight Time)","Mozilla/5.0 (Macintosh; Intel Mac OS X 10.11; rv:78.0) Gecko/20100101 Firefox/78.0",54,"[0.9, 0.5, 0.1]","[0.8, 0.4, 0.2]","[u'blue', u'red', u'black']","[u'left', u'middle', u'right']","[0.9, 0.5, 0.1]","[u'high', u'medium', u'low']","blue",49,"left","high","True","False",327,2550,NA
"A23WCDJKAT0RN5","Thu Oct 01 2020 13:29:43 GMT-0400 (Eastern Daylight Time)","Thu Oct 01 2020 13:37:17 GMT-0400 (Eastern Daylight Time)","Mozilla/5.0 (Macintosh; Intel Mac OS X 10.11; rv:78.0) Gecko/20100101 Firefox/78.0",55,"[0.9, 0.5, 0.1]","[0.8, 0.4, 0.2]","[u'blue', u'red', u'black']","[u'left', u'middle', u'right']","[0.9, 0.5, 0.1]","[u'high', u'medium', u'low']","blue",49,"left","high","True","False",267,2650,NA
"A23WCDJKAT0RN5","Thu Oct 01 2020 13:29:43 GMT-0400 (Eastern Daylight Time)","Thu Oct 01 2020 13:37:17 GMT-0400 (Eastern Daylight Time)","Mozilla/5.0 (Macintosh; Intel Mac OS X 10.11; rv:78.0) Gecko/20100101 Firefox/78.0",56,"[0.9, 0.5, 0.1]","[0.8, 0.4, 0.2]","[u'blue', u'red', u'black']","[u'left', u'middle', u'right']","[0.9, 0.5, 0.1]","[u'high', u'medium', u'low']","blue",49,"left","high","True","False",303,2750,NA
"A23WCDJKAT0RN5","Thu Oct 01 2020 13:29:43 GMT-0400 (Eastern Daylight Time)","Thu Oct 01 2020 13:37:17 GMT-0400 (Eastern Daylight Time)","Mozilla/5.0 (Macintosh; Intel Mac OS X 10.11; rv:78.0) Gecko/20100101 Firefox/78.0",57,"[0.9, 0.5, 0.1]","[0.8, 0.4, 0.2]","[u'blue', u'red', u'black']","[u'left', u'middle', u'right']","[0.9, 0.5, 0.1]","[u'high', u'medium', u'low']","blue",49,"left","high","True","False",238,2850,NA
"A23WCDJKAT0RN5","Thu Oct 01 2020 13:29:43 GMT-0400 (Eastern Daylight Time)","Thu Oct 01 2020 13:37:17 GMT-0400 (Eastern Daylight Time)","Mozilla/5.0 (Macintosh; Intel Mac OS X 10.11; rv:78.0) Gecko/20100101 Firefox/78.0",58,"[0.9, 0.5, 0.1]","[0.8, 0.4, 0.2]","[u'blue', u'red', u'black']","[u'left', u'middle', u'right']","[0.9, 0.5, 0.1]","[u'high', u'medium', u'low']","blue",49,"left","high","False","False",352,2800,NA
"A23WCDJKAT0RN5","Thu Oct 01 2020 13:29:43 GMT-0400 (Eastern Daylight Time)","Thu Oct 01 2020 13:37:17 GMT-0400 (Eastern Daylight Time)","Mozilla/5.0 (Macintosh; Intel Mac OS X 10.11; rv:78.0) Gecko/20100101 Firefox/78.0",59,"[0.9, 0.5, 0.1]","[0.8, 0.4, 0.2]","[u'blue', u'red', u'black']","[u'left', u'middle', u'right']","[0.9, 0.5, 0.1]","[u'high', u'medium', u'low']","red",50,"middle","medium","False","False",264,2750,NA
"A23WCDJKAT0RN5","Thu Oct 01 2020 13:29:43 GMT-0400 (Eastern Daylight Time)","Thu Oct 01 2020 13:37:17 GMT-0400 (Eastern Daylight Time)","Mozilla/5.0 (Macintosh; Intel Mac OS X 10.11; rv:78.0) Gecko/20100101 Firefox/78.0",60,"[0.9, 0.5, 0.1]","[0.8, 0.4, 0.2]","[u'blue', u'red', u'black']","[u'left', u'middle', u'right']","[0.9, 0.5, 0.1]","[u'high', u'medium', u'low']","blue",49,"left","high","True","False",282,2850,NA
"A23WCDJKAT0RN5","Thu Oct 01 2020 13:29:43 GMT-0400 (Eastern Daylight Time)","Thu Oct 01 2020 13:37:17 GMT-0400 (Eastern Daylight Time)","Mozilla/5.0 (Macintosh; Intel Mac OS X 10.11; rv:78.0) Gecko/20100101 Firefox/78.0",61,"[0.9, 0.5, 0.1]","[0.8, 0.4, 0.2]","[u'blue', u'red', u'black']","[u'left', u'middle', u'right']","[0.9, 0.5, 0.1]","[u'high', u'medium', u'low']","blue",49,"left","high","True","True",273,2950,NA
"A23WCDJKAT0RN5","Thu Oct 01 2020 13:29:43 GMT-0400 (Eastern Daylight Time)","Thu Oct 01 2020 13:37:17 GMT-0400 (Eastern Daylight Time)","Mozilla/5.0 (Macintosh; Intel Mac OS X 10.11; rv:78.0) Gecko/20100101 Firefox/78.0",62,"[0.9, 0.5, 0.1]","[0.8, 0.4, 0.2]","[u'blue', u'red', u'black']","[u'left', u'middle', u'right']","[0.9, 0.5, 0.1]","[u'medium', u'low', u'high']","blue",49,"left","medium","False","False",263,2900,NA
"A23WCDJKAT0RN5","Thu Oct 01 2020 13:29:43 GMT-0400 (Eastern Daylight Time)","Thu Oct 01 2020 13:37:17 GMT-0400 (Eastern Daylight Time)","Mozilla/5.0 (Macintosh; Intel Mac OS X 10.11; rv:78.0) Gecko/20100101 Firefox/78.0",63,"[0.9, 0.5, 0.1]","[0.8, 0.4, 0.2]","[u'blue', u'red', u'black']","[u'left', u'middle', u'right']","[0.9, 0.5, 0.1]","[u'medium', u'low', u'high']","black",51,"right","high","True","False",295,3000,NA
"A23WCDJKAT0RN5","Thu Oct 01 2020 13:29:43 GMT-0400 (Eastern Daylight Time)","Thu Oct 01 2020 13:37:17 GMT-0400 (Eastern Daylight Time)","Mozilla/5.0 (Macintosh; Intel Mac OS X 10.11; rv:78.0) Gecko/20100101 Firefox/78.0",64,"[0.9, 0.5, 0.1]","[0.8, 0.4, 0.2]","[u'blue', u'red', u'black']","[u'left', u'middle', u'right']","[0.9, 0.5, 0.1]","[u'medium', u'low', u'high']","black",51,"right","high","True","False",311,3100,NA
"A23WCDJKAT0RN5","Thu Oct 01 2020 13:29:43 GMT-0400 (Eastern Daylight Time)","Thu Oct 01 2020 13:37:17 GMT-0400 (Eastern Daylight Time)","Mozilla/5.0 (Macintosh; Intel Mac OS X 10.11; rv:78.0) Gecko/20100101 Firefox/78.0",65,"[0.9, 0.5, 0.1]","[0.8, 0.4, 0.2]","[u'blue', u'red', u'black']","[u'left', u'middle', u'right']","[0.9, 0.5, 0.1]","[u'medium', u'low', u'high']","black",51,"right","high","True","False",274,3200,NA
"A23WCDJKAT0RN5","Thu Oct 01 2020 13:29:43 GMT-0400 (Eastern Daylight Time)","Thu Oct 01 2020 13:37:17 GMT-0400 (Eastern Daylight Time)","Mozilla/5.0 (Macintosh; Intel Mac OS X 10.11; rv:78.0) Gecko/20100101 Firefox/78.0",66,"[0.9, 0.5, 0.1]","[0.8, 0.4, 0.2]","[u'blue', u'red', u'black']","[u'left', u'middle', u'right']","[0.9, 0.5, 0.1]","[u'medium', u'low', u'high']","black",51,"right","high","True","False",288,3300,NA
"A23WCDJKAT0RN5","Thu Oct 01 2020 13:29:43 GMT-0400 (Eastern Daylight Time)","Thu Oct 01 2020 13:37:17 GMT-0400 (Eastern Daylight Time)","Mozilla/5.0 (Macintosh; Intel Mac OS X 10.11; rv:78.0) Gecko/20100101 Firefox/78.0",67,"[0.9, 0.5, 0.1]","[0.8, 0.4, 0.2]","[u'blue', u'red', u'black']","[u'left', u'middle', u'right']","[0.9, 0.5, 0.1]","[u'medium', u'low', u'high']","black",51,"right","high","True","False",253,3400,NA
"A23WCDJKAT0RN5","Thu Oct 01 2020 13:29:43 GMT-0400 (Eastern Daylight Time)","Thu Oct 01 2020 13:37:17 GMT-0400 (Eastern Daylight Time)","Mozilla/5.0 (Macintosh; Intel Mac OS X 10.11; rv:78.0) Gecko/20100101 Firefox/78.0",68,"[0.9, 0.5, 0.1]","[0.8, 0.4, 0.2]","[u'blue', u'red', u'black']","[u'left', u'middle', u'right']","[0.9, 0.5, 0.1]","[u'medium', u'low', u'high']","black",51,"right","high","True","False",235,3500,NA
"A23WCDJKAT0RN5","Thu Oct 01 2020 13:29:43 GMT-0400 (Eastern Daylight Time)","Thu Oct 01 2020 13:37:17 GMT-0400 (Eastern Daylight Time)","Mozilla/5.0 (Macintosh; Intel Mac OS X 10.11; rv:78.0) Gecko/20100101 Firefox/78.0",69,"[0.9, 0.5, 0.1]","[0.8, 0.4, 0.2]","[u'blue', u'red', u'black']","[u'left', u'middle', u'right']","[0.9, 0.5, 0.1]","[u'medium', u'low', u'high']","black",51,"right","high","False","False",226,3450,NA
"A23WCDJKAT0RN5","Thu Oct 01 2020 13:29:43 GMT-0400 (Eastern Daylight Time)","Thu Oct 01 2020 13:37:17 GMT-0400 (Eastern Daylight Time)","Mozilla/5.0 (Macintosh; Intel Mac OS X 10.11; rv:78.0) Gecko/20100101 Firefox/78.0",70,"[0.9, 0.5, 0.1]","[0.8, 0.4, 0.2]","[u'blue', u'red', u'black']","[u'left', u'middle', u'right']","[0.9, 0.5, 0.1]","[u'medium', u'low', u'high']","blue",49,"left","medium","True","False",271,3550,NA
"A23WCDJKAT0RN5","Thu Oct 01 2020 13:29:43 GMT-0400 (Eastern Daylight Time)","Thu Oct 01 2020 13:37:17 GMT-0400 (Eastern Daylight Time)","Mozilla/5.0 (Macintosh; Intel Mac OS X 10.11; rv:78.0) Gecko/20100101 Firefox/78.0",71,"[0.9, 0.5, 0.1]","[0.8, 0.4, 0.2]","[u'blue', u'red', u'black']","[u'left', u'middle', u'right']","[0.9, 0.5, 0.1]","[u'medium', u'low', u'high']","blue",49,"left","medium","True","False",264,3650,NA
"A23WCDJKAT0RN5","Thu Oct 01 2020 13:29:43 GMT-0400 (Eastern Daylight Time)","Thu Oct 01 2020 13:37:17 GMT-0400 (Eastern Daylight Time)","Mozilla/5.0 (Macintosh; Intel Mac OS X 10.11; rv:78.0) Gecko/20100101 Firefox/78.0",72,"[0.9, 0.5, 0.1]","[0.8, 0.4, 0.2]","[u'blue', u'red', u'black']","[u'left', u'middle', u'right']","[0.9, 0.5, 0.1]","[u'medium', u'low', u'high']","blue",49,"left","medium","False","False",231,3600,NA
"A23WCDJKAT0RN5","Thu Oct 01 2020 13:29:43 GMT-0400 (Eastern Daylight Time)","Thu Oct 01 2020 13:37:17 GMT-0400 (Eastern Daylight Time)","Mozilla/5.0 (Macintosh; Intel Mac OS X 10.11; rv:78.0) Gecko/20100101 Firefox/78.0",73,"[0.9, 0.5, 0.1]","[0.8, 0.4, 0.2]","[u'blue', u'red', u'black']","[u'left', u'middle', u'right']","[0.9, 0.5, 0.1]","[u'medium', u'low', u'high']","red",50,"middle","low","False","False",288,3550,NA
"A23WCDJKAT0RN5","Thu Oct 01 2020 13:29:43 GMT-0400 (Eastern Daylight Time)","Thu Oct 01 2020 13:37:17 GMT-0400 (Eastern Daylight Time)","Mozilla/5.0 (Macintosh; Intel Mac OS X 10.11; rv:78.0) Gecko/20100101 Firefox/78.0",74,"[0.9, 0.5, 0.1]","[0.8, 0.4, 0.2]","[u'blue', u'red', u'black']","[u'left', u'middle', u'right']","[0.9, 0.5, 0.1]","[u'medium', u'low', u'high']","black",51,"right","high","True","False",248,3650,NA
"A23WCDJKAT0RN5","Thu Oct 01 2020 13:29:43 GMT-0400 (Eastern Daylight Time)","Thu Oct 01 2020 13:37:17 GMT-0400 (Eastern Daylight Time)","Mozilla/5.0 (Macintosh; Intel Mac OS X 10.11; rv:78.0) Gecko/20100101 Firefox/78.0",75,"[0.9, 0.5, 0.1]","[0.8, 0.4, 0.2]","[u'blue', u'red', u'black']","[u'left', u'middle', u'right']","[0.9, 0.5, 0.1]","[u'medium', u'low', u'high']","black",51,"right","high","True","False",207,3750,NA
"A23WCDJKAT0RN5","Thu Oct 01 2020 13:29:43 GMT-0400 (Eastern Daylight Time)","Thu Oct 01 2020 13:37:17 GMT-0400 (Eastern Daylight Time)","Mozilla/5.0 (Macintosh; Intel Mac OS X 10.11; rv:78.0) Gecko/20100101 Firefox/78.0",76,"[0.9, 0.5, 0.1]","[0.8, 0.4, 0.2]","[u'blue', u'red', u'black']","[u'left', u'middle', u'right']","[0.9, 0.5, 0.1]","[u'medium', u'low', u'high']","black",51,"right","high","True","False",221,3850,NA
"A23WCDJKAT0RN5","Thu Oct 01 2020 13:29:43 GMT-0400 (Eastern Daylight Time)","Thu Oct 01 2020 13:37:17 GMT-0400 (Eastern Daylight Time)","Mozilla/5.0 (Macintosh; Intel Mac OS X 10.11; rv:78.0) Gecko/20100101 Firefox/78.0",77,"[0.9, 0.5, 0.1]","[0.8, 0.4, 0.2]","[u'blue', u'red', u'black']","[u'left', u'middle', u'right']","[0.9, 0.5, 0.1]","[u'medium', u'low', u'high']","black",51,"right","high","True","False",183,3950,NA
"A23WCDJKAT0RN5","Thu Oct 01 2020 13:29:43 GMT-0400 (Eastern Daylight Time)","Thu Oct 01 2020 13:37:17 GMT-0400 (Eastern Daylight Time)","Mozilla/5.0 (Macintosh; Intel Mac OS X 10.11; rv:78.0) Gecko/20100101 Firefox/78.0",78,"[0.9, 0.5, 0.1]","[0.8, 0.4, 0.2]","[u'blue', u'red', u'black']","[u'left', u'middle', u'right']","[0.9, 0.5, 0.1]","[u'medium', u'low', u'high']","black",51,"right","high","True","False",232,4050,NA
"A23WCDJKAT0RN5","Thu Oct 01 2020 13:29:43 GMT-0400 (Eastern Daylight Time)","Thu Oct 01 2020 13:37:17 GMT-0400 (Eastern Daylight Time)","Mozilla/5.0 (Macintosh; Intel Mac OS X 10.11; rv:78.0) Gecko/20100101 Firefox/78.0",79,"[0.9, 0.5, 0.1]","[0.8, 0.4, 0.2]","[u'blue', u'red', u'black']","[u'left', u'middle', u'right']","[0.9, 0.5, 0.1]","[u'medium', u'low', u'high']","blue",49,"left","medium","True","False",246,4150,NA
"A23WCDJKAT0RN5","Thu Oct 01 2020 13:29:43 GMT-0400 (Eastern Daylight Time)","Thu Oct 01 2020 13:37:17 GMT-0400 (Eastern Daylight Time)","Mozilla/5.0 (Macintosh; Intel Mac OS X 10.11; rv:78.0) Gecko/20100101 Firefox/78.0",80,"[0.9, 0.5, 0.1]","[0.8, 0.4, 0.2]","[u'blue', u'red', u'black']","[u'left', u'middle', u'right']","[0.9, 0.5, 0.1]","[u'medium', u'low', u'high']","blue",49,"left","medium","False","False",242,4100,NA
"A23WCDJKAT0RN5","Thu Oct 01 2020 13:29:43 GMT-0400 (Eastern Daylight Time)","Thu Oct 01 2020 13:37:17 GMT-0400 (Eastern Daylight Time)","Mozilla/5.0 (Macintosh; Intel Mac OS X 10.11; rv:78.0) Gecko/20100101 Firefox/78.0",81,"[0.9, 0.5, 0.1]","[0.8, 0.4, 0.2]","[u'blue', u'red', u'black']","[u'left', u'middle', u'right']","[0.8, 0.4, 0.2]","[u'medium', u'high', u'low']","black",51,"right","low","False","False",2361,4050,NA
"A23WCDJKAT0RN5","Thu Oct 01 2020 13:29:43 GMT-0400 (Eastern Daylight Time)","Thu Oct 01 2020 13:37:17 GMT-0400 (Eastern Daylight Time)","Mozilla/5.0 (Macintosh; Intel Mac OS X 10.11; rv:78.0) Gecko/20100101 Firefox/78.0",82,"[0.9, 0.5, 0.1]","[0.8, 0.4, 0.2]","[u'blue', u'red', u'black']","[u'left', u'middle', u'right']","[0.8, 0.4, 0.2]","[u'medium', u'high', u'low']","blue",49,"left","medium","True","False",313,4150,NA
"A23WCDJKAT0RN5","Thu Oct 01 2020 13:29:43 GMT-0400 (Eastern Daylight Time)","Thu Oct 01 2020 13:37:17 GMT-0400 (Eastern Daylight Time)","Mozilla/5.0 (Macintosh; Intel Mac OS X 10.11; rv:78.0) Gecko/20100101 Firefox/78.0",83,"[0.9, 0.5, 0.1]","[0.8, 0.4, 0.2]","[u'blue', u'red', u'black']","[u'left', u'middle', u'right']","[0.8, 0.4, 0.2]","[u'medium', u'high', u'low']","blue",49,"left","medium","False","False",262,4100,NA
"A23WCDJKAT0RN5","Thu Oct 01 2020 13:29:43 GMT-0400 (Eastern Daylight Time)","Thu Oct 01 2020 13:37:17 GMT-0400 (Eastern Daylight Time)","Mozilla/5.0 (Macintosh; Intel Mac OS X 10.11; rv:78.0) Gecko/20100101 Firefox/78.0",84,"[0.9, 0.5, 0.1]","[0.8, 0.4, 0.2]","[u'blue', u'red', u'black']","[u'left', u'middle', u'right']","[0.8, 0.4, 0.2]","[u'medium', u'high', u'low']","black",51,"right","low","False","False",310,4050,NA
"A23WCDJKAT0RN5","Thu Oct 01 2020 13:29:43 GMT-0400 (Eastern Daylight Time)","Thu Oct 01 2020 13:37:17 GMT-0400 (Eastern Daylight Time)","Mozilla/5.0 (Macintosh; Intel Mac OS X 10.11; rv:78.0) Gecko/20100101 Firefox/78.0",85,"[0.9, 0.5, 0.1]","[0.8, 0.4, 0.2]","[u'blue', u'red', u'black']","[u'left', u'middle', u'right']","[0.8, 0.4, 0.2]","[u'medium', u'high', u'low']","red",50,"middle","high","True","False",568,4150,NA
"A23WCDJKAT0RN5","Thu Oct 01 2020 13:29:43 GMT-0400 (Eastern Daylight Time)","Thu Oct 01 2020 13:37:17 GMT-0400 (Eastern Daylight Time)","Mozilla/5.0 (Macintosh; Intel Mac OS X 10.11; rv:78.0) Gecko/20100101 Firefox/78.0",86,"[0.9, 0.5, 0.1]","[0.8, 0.4, 0.2]","[u'blue', u'red', u'black']","[u'left', u'middle', u'right']","[0.8, 0.4, 0.2]","[u'medium', u'high', u'low']","red",50,"middle","high","False","False",256,4100,NA
"A23WCDJKAT0RN5","Thu Oct 01 2020 13:29:43 GMT-0400 (Eastern Daylight Time)","Thu Oct 01 2020 13:37:17 GMT-0400 (Eastern Daylight Time)","Mozilla/5.0 (Macintosh; Intel Mac OS X 10.11; rv:78.0) Gecko/20100101 Firefox/78.0",87,"[0.9, 0.5, 0.1]","[0.8, 0.4, 0.2]","[u'blue', u'red', u'black']","[u'left', u'middle', u'right']","[0.8, 0.4, 0.2]","[u'medium', u'high', u'low']","blue",49,"left","medium","False","False",262,4050,NA
"A23WCDJKAT0RN5","Thu Oct 01 2020 13:29:43 GMT-0400 (Eastern Daylight Time)","Thu Oct 01 2020 13:37:17 GMT-0400 (Eastern Daylight Time)","Mozilla/5.0 (Macintosh; Intel Mac OS X 10.11; rv:78.0) Gecko/20100101 Firefox/78.0",88,"[0.9, 0.5, 0.1]","[0.8, 0.4, 0.2]","[u'blue', u'red', u'black']","[u'left', u'middle', u'right']","[0.8, 0.4, 0.2]","[u'medium', u'high', u'low']","black",51,"right","low","True","False",760,4150,NA
"A23WCDJKAT0RN5","Thu Oct 01 2020 13:29:43 GMT-0400 (Eastern Daylight Time)","Thu Oct 01 2020 13:37:17 GMT-0400 (Eastern Daylight Time)","Mozilla/5.0 (Macintosh; Intel Mac OS X 10.11; rv:78.0) Gecko/20100101 Firefox/78.0",89,"[0.9, 0.5, 0.1]","[0.8, 0.4, 0.2]","[u'blue', u'red', u'black']","[u'left', u'middle', u'right']","[0.8, 0.4, 0.2]","[u'medium', u'high', u'low']","black",51,"right","low","False","False",287,4100,NA
"A23WCDJKAT0RN5","Thu Oct 01 2020 13:29:43 GMT-0400 (Eastern Daylight Time)","Thu Oct 01 2020 13:37:17 GMT-0400 (Eastern Daylight Time)","Mozilla/5.0 (Macintosh; Intel Mac OS X 10.11; rv:78.0) Gecko/20100101 Firefox/78.0",90,"[0.9, 0.5, 0.1]","[0.8, 0.4, 0.2]","[u'blue', u'red', u'black']","[u'left', u'middle', u'right']","[0.8, 0.4, 0.2]","[u'medium', u'high', u'low']","red",50,"middle","high","True","False",255,4200,NA
"A23WCDJKAT0RN5","Thu Oct 01 2020 13:29:43 GMT-0400 (Eastern Daylight Time)","Thu Oct 01 2020 13:37:17 GMT-0400 (Eastern Daylight Time)","Mozilla/5.0 (Macintosh; Intel Mac OS X 10.11; rv:78.0) Gecko/20100101 Firefox/78.0",91,"[0.9, 0.5, 0.1]","[0.8, 0.4, 0.2]","[u'blue', u'red', u'black']","[u'left', u'middle', u'right']","[0.8, 0.4, 0.2]","[u'medium', u'high', u'low']","red",50,"middle","high","True","False",294,4300,NA
"A23WCDJKAT0RN5","Thu Oct 01 2020 13:29:43 GMT-0400 (Eastern Daylight Time)","Thu Oct 01 2020 13:37:17 GMT-0400 (Eastern Daylight Time)","Mozilla/5.0 (Macintosh; Intel Mac OS X 10.11; rv:78.0) Gecko/20100101 Firefox/78.0",92,"[0.9, 0.5, 0.1]","[0.8, 0.4, 0.2]","[u'blue', u'red', u'black']","[u'left', u'middle', u'right']","[0.8, 0.4, 0.2]","[u'medium', u'high', u'low']","red",50,"middle","high","False","False",274,4250,NA
"A23WCDJKAT0RN5","Thu Oct 01 2020 13:29:43 GMT-0400 (Eastern Daylight Time)","Thu Oct 01 2020 13:37:17 GMT-0400 (Eastern Daylight Time)","Mozilla/5.0 (Macintosh; Intel Mac OS X 10.11; rv:78.0) Gecko/20100101 Firefox/78.0",93,"[0.9, 0.5, 0.1]","[0.8, 0.4, 0.2]","[u'blue', u'red', u'black']","[u'left', u'middle', u'right']","[0.8, 0.4, 0.2]","[u'medium', u'high', u'low']","blue",49,"left","medium","True","False",280,4350,NA
"A23WCDJKAT0RN5","Thu Oct 01 2020 13:29:43 GMT-0400 (Eastern Daylight Time)","Thu Oct 01 2020 13:37:17 GMT-0400 (Eastern Daylight Time)","Mozilla/5.0 (Macintosh; Intel Mac OS X 10.11; rv:78.0) Gecko/20100101 Firefox/78.0",94,"[0.9, 0.5, 0.1]","[0.8, 0.4, 0.2]","[u'blue', u'red', u'black']","[u'left', u'middle', u'right']","[0.8, 0.4, 0.2]","[u'medium', u'high', u'low']","blue",49,"left","medium","True","False",249,4450,NA
"A23WCDJKAT0RN5","Thu Oct 01 2020 13:29:43 GMT-0400 (Eastern Daylight Time)","Thu Oct 01 2020 13:37:17 GMT-0400 (Eastern Daylight Time)","Mozilla/5.0 (Macintosh; Intel Mac OS X 10.11; rv:78.0) Gecko/20100101 Firefox/78.0",95,"[0.9, 0.5, 0.1]","[0.8, 0.4, 0.2]","[u'blue', u'red', u'black']","[u'left', u'middle', u'right']","[0.8, 0.4, 0.2]","[u'medium', u'high', u'low']","blue",49,"left","medium","False","False",399,4400,NA
"A23WCDJKAT0RN5","Thu Oct 01 2020 13:29:43 GMT-0400 (Eastern Daylight Time)","Thu Oct 01 2020 13:37:17 GMT-0400 (Eastern Daylight Time)","Mozilla/5.0 (Macintosh; Intel Mac OS X 10.11; rv:78.0) Gecko/20100101 Firefox/78.0",96,"[0.9, 0.5, 0.1]","[0.8, 0.4, 0.2]","[u'blue', u'red', u'black']","[u'left', u'middle', u'right']","[0.8, 0.4, 0.2]","[u'medium', u'high', u'low']","red",50,"middle","high","False","False",350,4350,NA
"A23WCDJKAT0RN5","Thu Oct 01 2020 13:29:43 GMT-0400 (Eastern Daylight Time)","Thu Oct 01 2020 13:37:17 GMT-0400 (Eastern Daylight Time)","Mozilla/5.0 (Macintosh; Intel Mac OS X 10.11; rv:78.0) Gecko/20100101 Firefox/78.0",97,"[0.9, 0.5, 0.1]","[0.8, 0.4, 0.2]","[u'blue', u'red', u'black']","[u'left', u'middle', u'right']","[0.8, 0.4, 0.2]","[u'medium', u'high', u'low']","blue",49,"left","medium","False","False",370,4300,NA
"A23WCDJKAT0RN5","Thu Oct 01 2020 13:29:43 GMT-0400 (Eastern Daylight Time)","Thu Oct 01 2020 13:37:17 GMT-0400 (Eastern Daylight Time)","Mozilla/5.0 (Macintosh; Intel Mac OS X 10.11; rv:78.0) Gecko/20100101 Firefox/78.0",98,"[0.9, 0.5, 0.1]","[0.8, 0.4, 0.2]","[u'blue', u'red', u'black']","[u'left', u'middle', u'right']","[0.8, 0.4, 0.2]","[u'medium', u'high', u'low']","black",51,"right","low","True","False",279,4400,NA
"A23WCDJKAT0RN5","Thu Oct 01 2020 13:29:43 GMT-0400 (Eastern Daylight Time)","Thu Oct 01 2020 13:37:17 GMT-0400 (Eastern Daylight Time)","Mozilla/5.0 (Macintosh; Intel Mac OS X 10.11; rv:78.0) Gecko/20100101 Firefox/78.0",99,"[0.9, 0.5, 0.1]","[0.8, 0.4, 0.2]","[u'blue', u'red', u'black']","[u'left', u'middle', u'right']","[0.8, 0.4, 0.2]","[u'medium', u'high', u'low']","black",51,"right","low","True","False",298,4500,NA
"A23WCDJKAT0RN5","Thu Oct 01 2020 13:29:43 GMT-0400 (Eastern Daylight Time)","Thu Oct 01 2020 13:37:17 GMT-0400 (Eastern Daylight Time)","Mozilla/5.0 (Macintosh; Intel Mac OS X 10.11; rv:78.0) Gecko/20100101 Firefox/78.0",100,"[0.9, 0.5, 0.1]","[0.8, 0.4, 0.2]","[u'blue', u'red', u'black']","[u'left', u'middle', u'right']","[0.8, 0.4, 0.2]","[u'medium', u'high', u'low']","black",51,"right","low","False","False",223,4450,NA
"A23WCDJKAT0RN5","Thu Oct 01 2020 13:29:43 GMT-0400 (Eastern Daylight Time)","Thu Oct 01 2020 13:37:17 GMT-0400 (Eastern Daylight Time)","Mozilla/5.0 (Macintosh; Intel Mac OS X 10.11; rv:78.0) Gecko/20100101 Firefox/78.0",101,"[0.9, 0.5, 0.1]","[0.8, 0.4, 0.2]","[u'blue', u'red', u'black']","[u'left', u'middle', u'right']","[0.8, 0.4, 0.2]","[u'medium', u'high', u'low']","red",50,"middle","high","True","False",383,4550,NA
"A23WCDJKAT0RN5","Thu Oct 01 2020 13:29:43 GMT-0400 (Eastern Daylight Time)","Thu Oct 01 2020 13:37:17 GMT-0400 (Eastern Daylight Time)","Mozilla/5.0 (Macintosh; Intel Mac OS X 10.11; rv:78.0) Gecko/20100101 Firefox/78.0",102,"[0.9, 0.5, 0.1]","[0.8, 0.4, 0.2]","[u'blue', u'red', u'black']","[u'left', u'middle', u'right']","[0.8, 0.4, 0.2]","[u'medium', u'high', u'low']","red",50,"middle","high","True","False",244,4650,NA
"A23WCDJKAT0RN5","Thu Oct 01 2020 13:29:43 GMT-0400 (Eastern Daylight Time)","Thu Oct 01 2020 13:37:17 GMT-0400 (Eastern Daylight Time)","Mozilla/5.0 (Macintosh; Intel Mac OS X 10.11; rv:78.0) Gecko/20100101 Firefox/78.0",103,"[0.9, 0.5, 0.1]","[0.8, 0.4, 0.2]","[u'blue', u'red', u'black']","[u'left', u'middle', u'right']","[0.8, 0.4, 0.2]","[u'medium', u'high', u'low']","black",51,"right","low","False","False",258,4600,NA
"A23WCDJKAT0RN5","Thu Oct 01 2020 13:29:43 GMT-0400 (Eastern Daylight Time)","Thu Oct 01 2020 13:37:17 GMT-0400 (Eastern Daylight Time)","Mozilla/5.0 (Macintosh; Intel Mac OS X 10.11; rv:78.0) Gecko/20100101 Firefox/78.0",104,"[0.9, 0.5, 0.1]","[0.8, 0.4, 0.2]","[u'blue', u'red', u'black']","[u'left', u'middle', u'right']","[0.8, 0.4, 0.2]","[u'medium', u'high', u'low']","blue",49,"left","medium","False","False",313,4550,NA
"A23WCDJKAT0RN5","Thu Oct 01 2020 13:29:43 GMT-0400 (Eastern Daylight Time)","Thu Oct 01 2020 13:37:17 GMT-0400 (Eastern Daylight Time)","Mozilla/5.0 (Macintosh; Intel Mac OS X 10.11; rv:78.0) Gecko/20100101 Firefox/78.0",105,"[0.9, 0.5, 0.1]","[0.8, 0.4, 0.2]","[u'blue', u'red', u'black']","[u'left', u'middle', u'right']","[0.8, 0.4, 0.2]","[u'medium', u'high', u'low']","red",50,"middle","high","True","False",270,4650,NA
"A23WCDJKAT0RN5","Thu Oct 01 2020 13:29:43 GMT-0400 (Eastern Daylight Time)","Thu Oct 01 2020 13:37:17 GMT-0400 (Eastern Daylight Time)","Mozilla/5.0 (Macintosh; Intel Mac OS X 10.11; rv:78.0) Gecko/20100101 Firefox/78.0",106,"[0.9, 0.5, 0.1]","[0.8, 0.4, 0.2]","[u'blue', u'red', u'black']","[u'left', u'middle', u'right']","[0.8, 0.4, 0.2]","[u'medium', u'high', u'low']","red",50,"middle","high","True","False",282,4750,NA
"A23WCDJKAT0RN5","Thu Oct 01 2020 13:29:43 GMT-0400 (Eastern Daylight Time)","Thu Oct 01 2020 13:37:17 GMT-0400 (Eastern Daylight Time)","Mozilla/5.0 (Macintosh; Intel Mac OS X 10.11; rv:78.0) Gecko/20100101 Firefox/78.0",107,"[0.9, 0.5, 0.1]","[0.8, 0.4, 0.2]","[u'blue', u'red', u'black']","[u'left', u'middle', u'right']","[0.8, 0.4, 0.2]","[u'medium', u'high', u'low']","red",50,"middle","high","True","False",264,4850,NA
"A23WCDJKAT0RN5","Thu Oct 01 2020 13:29:43 GMT-0400 (Eastern Daylight Time)","Thu Oct 01 2020 13:37:17 GMT-0400 (Eastern Daylight Time)","Mozilla/5.0 (Macintosh; Intel Mac OS X 10.11; rv:78.0) Gecko/20100101 Firefox/78.0",108,"[0.9, 0.5, 0.1]","[0.8, 0.4, 0.2]","[u'blue', u'red', u'black']","[u'left', u'middle', u'right']","[0.8, 0.4, 0.2]","[u'medium', u'high', u'low']","red",50,"middle","high","True","False",257,4950,NA
"A23WCDJKAT0RN5","Thu Oct 01 2020 13:29:43 GMT-0400 (Eastern Daylight Time)","Thu Oct 01 2020 13:37:17 GMT-0400 (Eastern Daylight Time)","Mozilla/5.0 (Macintosh; Intel Mac OS X 10.11; rv:78.0) Gecko/20100101 Firefox/78.0",109,"[0.9, 0.5, 0.1]","[0.8, 0.4, 0.2]","[u'blue', u'red', u'black']","[u'left', u'middle', u'right']","[0.8, 0.4, 0.2]","[u'medium', u'high', u'low']","red",50,"middle","high","True","False",279,5050,NA
"A23WCDJKAT0RN5","Thu Oct 01 2020 13:29:43 GMT-0400 (Eastern Daylight Time)","Thu Oct 01 2020 13:37:17 GMT-0400 (Eastern Daylight Time)","Mozilla/5.0 (Macintosh; Intel Mac OS X 10.11; rv:78.0) Gecko/20100101 Firefox/78.0",110,"[0.9, 0.5, 0.1]","[0.8, 0.4, 0.2]","[u'blue', u'red', u'black']","[u'left', u'middle', u'right']","[0.8, 0.4, 0.2]","[u'medium', u'high', u'low']","black",51,"right","low","False","False",734,5000,NA
"A23WCDJKAT0RN5","Thu Oct 01 2020 13:29:43 GMT-0400 (Eastern Daylight Time)","Thu Oct 01 2020 13:37:17 GMT-0400 (Eastern Daylight Time)","Mozilla/5.0 (Macintosh; Intel Mac OS X 10.11; rv:78.0) Gecko/20100101 Firefox/78.0",111,"[0.9, 0.5, 0.1]","[0.8, 0.4, 0.2]","[u'blue', u'red', u'black']","[u'left', u'middle', u'right']","[0.8, 0.4, 0.2]","[u'medium', u'high', u'low']","red",50,"middle","high","True","False",256,5100,NA
"A23WCDJKAT0RN5","Thu Oct 01 2020 13:29:43 GMT-0400 (Eastern Daylight Time)","Thu Oct 01 2020 13:37:17 GMT-0400 (Eastern Daylight Time)","Mozilla/5.0 (Macintosh; Intel Mac OS X 10.11; rv:78.0) Gecko/20100101 Firefox/78.0",112,"[0.9, 0.5, 0.1]","[0.8, 0.4, 0.2]","[u'blue', u'red', u'black']","[u'left', u'middle', u'right']","[0.8, 0.4, 0.2]","[u'medium', u'high', u'low']","red",50,"middle","high","True","False",294,5200,NA
"A23WCDJKAT0RN5","Thu Oct 01 2020 13:29:43 GMT-0400 (Eastern Daylight Time)","Thu Oct 01 2020 13:37:17 GMT-0400 (Eastern Daylight Time)","Mozilla/5.0 (Macintosh; Intel Mac OS X 10.11; rv:78.0) Gecko/20100101 Firefox/78.0",113,"[0.9, 0.5, 0.1]","[0.8, 0.4, 0.2]","[u'blue', u'red', u'black']","[u'left', u'middle', u'right']","[0.8, 0.4, 0.2]","[u'medium', u'high', u'low']","blue",49,"left","medium","False","False",662,5150,NA
"A23WCDJKAT0RN5","Thu Oct 01 2020 13:29:43 GMT-0400 (Eastern Daylight Time)","Thu Oct 01 2020 13:37:17 GMT-0400 (Eastern Daylight Time)","Mozilla/5.0 (Macintosh; Intel Mac OS X 10.11; rv:78.0) Gecko/20100101 Firefox/78.0",114,"[0.9, 0.5, 0.1]","[0.8, 0.4, 0.2]","[u'blue', u'red', u'black']","[u'left', u'middle', u'right']","[0.8, 0.4, 0.2]","[u'medium', u'high', u'low']","red",50,"middle","high","True","False",278,5250,NA
"A23WCDJKAT0RN5","Thu Oct 01 2020 13:29:43 GMT-0400 (Eastern Daylight Time)","Thu Oct 01 2020 13:37:17 GMT-0400 (Eastern Daylight Time)","Mozilla/5.0 (Macintosh; Intel Mac OS X 10.11; rv:78.0) Gecko/20100101 Firefox/78.0",115,"[0.9, 0.5, 0.1]","[0.8, 0.4, 0.2]","[u'blue', u'red', u'black']","[u'left', u'middle', u'right']","[0.8, 0.4, 0.2]","[u'medium', u'high', u'low']","red",50,"middle","high","True","False",264,5350,NA
"A23WCDJKAT0RN5","Thu Oct 01 2020 13:29:43 GMT-0400 (Eastern Daylight Time)","Thu Oct 01 2020 13:37:17 GMT-0400 (Eastern Daylight Time)","Mozilla/5.0 (Macintosh; Intel Mac OS X 10.11; rv:78.0) Gecko/20100101 Firefox/78.0",116,"[0.9, 0.5, 0.1]","[0.8, 0.4, 0.2]","[u'blue', u'red', u'black']","[u'left', u'middle', u'right']","[0.8, 0.4, 0.2]","[u'medium', u'high', u'low']","red",50,"middle","high","True","False",272,5450,NA
"A23WCDJKAT0RN5","Thu Oct 01 2020 13:29:43 GMT-0400 (Eastern Daylight Time)","Thu Oct 01 2020 13:37:17 GMT-0400 (Eastern Daylight Time)","Mozilla/5.0 (Macintosh; Intel Mac OS X 10.11; rv:78.0) Gecko/20100101 Firefox/78.0",117,"[0.9, 0.5, 0.1]","[0.8, 0.4, 0.2]","[u'blue', u'red', u'black']","[u'left', u'middle', u'right']","[0.8, 0.4, 0.2]","[u'medium', u'high', u'low']","red",50,"middle","high","True","False",240,5550,NA
"A23WCDJKAT0RN5","Thu Oct 01 2020 13:29:43 GMT-0400 (Eastern Daylight Time)","Thu Oct 01 2020 13:37:17 GMT-0400 (Eastern Daylight Time)","Mozilla/5.0 (Macintosh; Intel Mac OS X 10.11; rv:78.0) Gecko/20100101 Firefox/78.0",118,"[0.9, 0.5, 0.1]","[0.8, 0.4, 0.2]","[u'blue', u'red', u'black']","[u'left', u'middle', u'right']","[0.8, 0.4, 0.2]","[u'medium', u'high', u'low']","red",50,"middle","high","True","False",192,5650,NA
"A23WCDJKAT0RN5","Thu Oct 01 2020 13:29:43 GMT-0400 (Eastern Daylight Time)","Thu Oct 01 2020 13:37:17 GMT-0400 (Eastern Daylight Time)","Mozilla/5.0 (Macintosh; Intel Mac OS X 10.11; rv:78.0) Gecko/20100101 Firefox/78.0",119,"[0.9, 0.5, 0.1]","[0.8, 0.4, 0.2]","[u'blue', u'red', u'black']","[u'left', u'middle', u'right']","[0.8, 0.4, 0.2]","[u'medium', u'high', u'low']","red",50,"middle","high","True","False",179,5750,NA
"A23WCDJKAT0RN5","Thu Oct 01 2020 13:29:43 GMT-0400 (Eastern Daylight Time)","Thu Oct 01 2020 13:37:17 GMT-0400 (Eastern Daylight Time)","Mozilla/5.0 (Macintosh; Intel Mac OS X 10.11; rv:78.0) Gecko/20100101 Firefox/78.0",120,"[0.9, 0.5, 0.1]","[0.8, 0.4, 0.2]","[u'blue', u'red', u'black']","[u'left', u'middle', u'right']","[0.8, 0.4, 0.2]","[u'medium', u'high', u'low']","red",50,"middle","high","True","False",190,5850,NA
"A23WCDJKAT0RN5","Thu Oct 01 2020 13:29:43 GMT-0400 (Eastern Daylight Time)","Thu Oct 01 2020 13:37:17 GMT-0400 (Eastern Daylight Time)","Mozilla/5.0 (Macintosh; Intel Mac OS X 10.11; rv:78.0) Gecko/20100101 Firefox/78.0",121,"[0.9, 0.5, 0.1]","[0.8, 0.4, 0.2]","[u'blue', u'red', u'black']","[u'left', u'middle', u'right']","[0.8, 0.4, 0.2]","[u'high', u'low', u'medium']","black",51,"right","medium","True","False",3460,5950,NA
"A23WCDJKAT0RN5","Thu Oct 01 2020 13:29:43 GMT-0400 (Eastern Daylight Time)","Thu Oct 01 2020 13:37:17 GMT-0400 (Eastern Daylight Time)","Mozilla/5.0 (Macintosh; Intel Mac OS X 10.11; rv:78.0) Gecko/20100101 Firefox/78.0",122,"[0.9, 0.5, 0.1]","[0.8, 0.4, 0.2]","[u'blue', u'red', u'black']","[u'left', u'middle', u'right']","[0.8, 0.4, 0.2]","[u'high', u'low', u'medium']","black",51,"right","medium","False","False",249,5900,NA
"A23WCDJKAT0RN5","Thu Oct 01 2020 13:29:43 GMT-0400 (Eastern Daylight Time)","Thu Oct 01 2020 13:37:17 GMT-0400 (Eastern Daylight Time)","Mozilla/5.0 (Macintosh; Intel Mac OS X 10.11; rv:78.0) Gecko/20100101 Firefox/78.0",123,"[0.9, 0.5, 0.1]","[0.8, 0.4, 0.2]","[u'blue', u'red', u'black']","[u'left', u'middle', u'right']","[0.8, 0.4, 0.2]","[u'high', u'low', u'medium']","blue",49,"left","high","False","False",366,5850,NA
"A23WCDJKAT0RN5","Thu Oct 01 2020 13:29:43 GMT-0400 (Eastern Daylight Time)","Thu Oct 01 2020 13:37:17 GMT-0400 (Eastern Daylight Time)","Mozilla/5.0 (Macintosh; Intel Mac OS X 10.11; rv:78.0) Gecko/20100101 Firefox/78.0",124,"[0.9, 0.5, 0.1]","[0.8, 0.4, 0.2]","[u'blue', u'red', u'black']","[u'left', u'middle', u'right']","[0.8, 0.4, 0.2]","[u'high', u'low', u'medium']","red",50,"middle","low","False","False",348,5800,NA
"A23WCDJKAT0RN5","Thu Oct 01 2020 13:29:43 GMT-0400 (Eastern Daylight Time)","Thu Oct 01 2020 13:37:17 GMT-0400 (Eastern Daylight Time)","Mozilla/5.0 (Macintosh; Intel Mac OS X 10.11; rv:78.0) Gecko/20100101 Firefox/78.0",125,"[0.9, 0.5, 0.1]","[0.8, 0.4, 0.2]","[u'blue', u'red', u'black']","[u'left', u'middle', u'right']","[0.8, 0.4, 0.2]","[u'high', u'low', u'medium']","black",51,"right","medium","False","False",291,5750,NA
"A23WCDJKAT0RN5","Thu Oct 01 2020 13:29:43 GMT-0400 (Eastern Daylight Time)","Thu Oct 01 2020 13:37:17 GMT-0400 (Eastern Daylight Time)","Mozilla/5.0 (Macintosh; Intel Mac OS X 10.11; rv:78.0) Gecko/20100101 Firefox/78.0",126,"[0.9, 0.5, 0.1]","[0.8, 0.4, 0.2]","[u'blue', u'red', u'black']","[u'left', u'middle', u'right']","[0.8, 0.4, 0.2]","[u'high', u'low', u'medium']","blue",49,"left","high","True","False",466,5850,NA
"A23WCDJKAT0RN5","Thu Oct 01 2020 13:29:43 GMT-0400 (Eastern Daylight Time)","Thu Oct 01 2020 13:37:17 GMT-0400 (Eastern Daylight Time)","Mozilla/5.0 (Macintosh; Intel Mac OS X 10.11; rv:78.0) Gecko/20100101 Firefox/78.0",127,"[0.9, 0.5, 0.1]","[0.8, 0.4, 0.2]","[u'blue', u'red', u'black']","[u'left', u'middle', u'right']","[0.8, 0.4, 0.2]","[u'high', u'low', u'medium']","blue",49,"left","high","False","False",350,5800,NA
"A23WCDJKAT0RN5","Thu Oct 01 2020 13:29:43 GMT-0400 (Eastern Daylight Time)","Thu Oct 01 2020 13:37:17 GMT-0400 (Eastern Daylight Time)","Mozilla/5.0 (Macintosh; Intel Mac OS X 10.11; rv:78.0) Gecko/20100101 Firefox/78.0",128,"[0.9, 0.5, 0.1]","[0.8, 0.4, 0.2]","[u'blue', u'red', u'black']","[u'left', u'middle', u'right']","[0.8, 0.4, 0.2]","[u'high', u'low', u'medium']","red",50,"middle","low","False","False",270,5750,NA
"A23WCDJKAT0RN5","Thu Oct 01 2020 13:29:43 GMT-0400 (Eastern Daylight Time)","Thu Oct 01 2020 13:37:17 GMT-0400 (Eastern Daylight Time)","Mozilla/5.0 (Macintosh; Intel Mac OS X 10.11; rv:78.0) Gecko/20100101 Firefox/78.0",129,"[0.9, 0.5, 0.1]","[0.8, 0.4, 0.2]","[u'blue', u'red', u'black']","[u'left', u'middle', u'right']","[0.8, 0.4, 0.2]","[u'high', u'low', u'medium']","blue",49,"left","high","True","False",636,5850,NA
"A23WCDJKAT0RN5","Thu Oct 01 2020 13:29:43 GMT-0400 (Eastern Daylight Time)","Thu Oct 01 2020 13:37:17 GMT-0400 (Eastern Daylight Time)","Mozilla/5.0 (Macintosh; Intel Mac OS X 10.11; rv:78.0) Gecko/20100101 Firefox/78.0",130,"[0.9, 0.5, 0.1]","[0.8, 0.4, 0.2]","[u'blue', u'red', u'black']","[u'left', u'middle', u'right']","[0.8, 0.4, 0.2]","[u'high', u'low', u'medium']","blue",49,"left","high","True","False",334,5950,NA
"A23WCDJKAT0RN5","Thu Oct 01 2020 13:29:43 GMT-0400 (Eastern Daylight Time)","Thu Oct 01 2020 13:37:17 GMT-0400 (Eastern Daylight Time)","Mozilla/5.0 (Macintosh; Intel Mac OS X 10.11; rv:78.0) Gecko/20100101 Firefox/78.0",131,"[0.9, 0.5, 0.1]","[0.8, 0.4, 0.2]","[u'blue', u'red', u'black']","[u'left', u'middle', u'right']","[0.8, 0.4, 0.2]","[u'high', u'low', u'medium']","blue",49,"left","high","False","False",377,5900,NA
"A23WCDJKAT0RN5","Thu Oct 01 2020 13:29:43 GMT-0400 (Eastern Daylight Time)","Thu Oct 01 2020 13:37:17 GMT-0400 (Eastern Daylight Time)","Mozilla/5.0 (Macintosh; Intel Mac OS X 10.11; rv:78.0) Gecko/20100101 Firefox/78.0",132,"[0.9, 0.5, 0.1]","[0.8, 0.4, 0.2]","[u'blue', u'red', u'black']","[u'left', u'middle', u'right']","[0.8, 0.4, 0.2]","[u'high', u'low', u'medium']","black",51,"right","medium","True","False",424,6000,NA
"A23WCDJKAT0RN5","Thu Oct 01 2020 13:29:43 GMT-0400 (Eastern Daylight Time)","Thu Oct 01 2020 13:37:17 GMT-0400 (Eastern Daylight Time)","Mozilla/5.0 (Macintosh; Intel Mac OS X 10.11; rv:78.0) Gecko/20100101 Firefox/78.0",133,"[0.9, 0.5, 0.1]","[0.8, 0.4, 0.2]","[u'blue', u'red', u'black']","[u'left', u'middle', u'right']","[0.8, 0.4, 0.2]","[u'high', u'low', u'medium']","black",51,"right","medium","True","False",320,6100,NA
"A23WCDJKAT0RN5","Thu Oct 01 2020 13:29:43 GMT-0400 (Eastern Daylight Time)","Thu Oct 01 2020 13:37:17 GMT-0400 (Eastern Daylight Time)","Mozilla/5.0 (Macintosh; Intel Mac OS X 10.11; rv:78.0) Gecko/20100101 Firefox/78.0",134,"[0.9, 0.5, 0.1]","[0.8, 0.4, 0.2]","[u'blue', u'red', u'black']","[u'left', u'middle', u'right']","[0.8, 0.4, 0.2]","[u'high', u'low', u'medium']","blue",49,"left","high","False","False",552,6050,NA
"A23WCDJKAT0RN5","Thu Oct 01 2020 13:29:43 GMT-0400 (Eastern Daylight Time)","Thu Oct 01 2020 13:37:17 GMT-0400 (Eastern Daylight Time)","Mozilla/5.0 (Macintosh; Intel Mac OS X 10.11; rv:78.0) Gecko/20100101 Firefox/78.0",135,"[0.9, 0.5, 0.1]","[0.8, 0.4, 0.2]","[u'blue', u'red', u'black']","[u'left', u'middle', u'right']","[0.8, 0.4, 0.2]","[u'high', u'low', u'medium']","red",50,"middle","low","False","False",680,6000,NA
"A23WCDJKAT0RN5","Thu Oct 01 2020 13:29:43 GMT-0400 (Eastern Daylight Time)","Thu Oct 01 2020 13:37:17 GMT-0400 (Eastern Daylight Time)","Mozilla/5.0 (Macintosh; Intel Mac OS X 10.11; rv:78.0) Gecko/20100101 Firefox/78.0",136,"[0.9, 0.5, 0.1]","[0.8, 0.4, 0.2]","[u'blue', u'red', u'black']","[u'left', u'middle', u'right']","[0.8, 0.4, 0.2]","[u'high', u'low', u'medium']","black",51,"right","medium","False","False",449,5950,NA
"A23WCDJKAT0RN5","Thu Oct 01 2020 13:29:43 GMT-0400 (Eastern Daylight Time)","Thu Oct 01 2020 13:37:17 GMT-0400 (Eastern Daylight Time)","Mozilla/5.0 (Macintosh; Intel Mac OS X 10.11; rv:78.0) Gecko/20100101 Firefox/78.0",137,"[0.9, 0.5, 0.1]","[0.8, 0.4, 0.2]","[u'blue', u'red', u'black']","[u'left', u'middle', u'right']","[0.8, 0.4, 0.2]","[u'high', u'low', u'medium']","blue",49,"left","high","True","False",266,6050,NA
"A23WCDJKAT0RN5","Thu Oct 01 2020 13:29:43 GMT-0400 (Eastern Daylight Time)","Thu Oct 01 2020 13:37:17 GMT-0400 (Eastern Daylight Time)","Mozilla/5.0 (Macintosh; Intel Mac OS X 10.11; rv:78.0) Gecko/20100101 Firefox/78.0",138,"[0.9, 0.5, 0.1]","[0.8, 0.4, 0.2]","[u'blue', u'red', u'black']","[u'left', u'middle', u'right']","[0.8, 0.4, 0.2]","[u'high', u'low', u'medium']","blue",49,"left","high","True","False",353,6150,NA
"A23WCDJKAT0RN5","Thu Oct 01 2020 13:29:43 GMT-0400 (Eastern Daylight Time)","Thu Oct 01 2020 13:37:17 GMT-0400 (Eastern Daylight Time)","Mozilla/5.0 (Macintosh; Intel Mac OS X 10.11; rv:78.0) Gecko/20100101 Firefox/78.0",139,"[0.9, 0.5, 0.1]","[0.8, 0.4, 0.2]","[u'blue', u'red', u'black']","[u'left', u'middle', u'right']","[0.8, 0.4, 0.2]","[u'high', u'low', u'medium']","blue",49,"left","high","False","False",607,6100,NA
"A23WCDJKAT0RN5","Thu Oct 01 2020 13:29:43 GMT-0400 (Eastern Daylight Time)","Thu Oct 01 2020 13:37:17 GMT-0400 (Eastern Daylight Time)","Mozilla/5.0 (Macintosh; Intel Mac OS X 10.11; rv:78.0) Gecko/20100101 Firefox/78.0",140,"[0.9, 0.5, 0.1]","[0.8, 0.4, 0.2]","[u'blue', u'red', u'black']","[u'left', u'middle', u'right']","[0.8, 0.4, 0.2]","[u'high', u'low', u'medium']","black",51,"right","medium","True","False",1111,6200,NA
"A23WCDJKAT0RN5","Thu Oct 01 2020 13:29:43 GMT-0400 (Eastern Daylight Time)","Thu Oct 01 2020 13:37:17 GMT-0400 (Eastern Daylight Time)","Mozilla/5.0 (Macintosh; Intel Mac OS X 10.11; rv:78.0) Gecko/20100101 Firefox/78.0",141,"[0.9, 0.5, 0.1]","[0.8, 0.4, 0.2]","[u'blue', u'red', u'black']","[u'left', u'middle', u'right']","[0.8, 0.4, 0.2]","[u'high', u'low', u'medium']","black",51,"right","medium","True","False",296,6300,NA
"A23WCDJKAT0RN5","Thu Oct 01 2020 13:29:43 GMT-0400 (Eastern Daylight Time)","Thu Oct 01 2020 13:37:17 GMT-0400 (Eastern Daylight Time)","Mozilla/5.0 (Macintosh; Intel Mac OS X 10.11; rv:78.0) Gecko/20100101 Firefox/78.0",142,"[0.9, 0.5, 0.1]","[0.8, 0.4, 0.2]","[u'blue', u'red', u'black']","[u'left', u'middle', u'right']","[0.8, 0.4, 0.2]","[u'high', u'low', u'medium']","red",50,"middle","low","False","False",473,6250,NA
"A23WCDJKAT0RN5","Thu Oct 01 2020 13:29:43 GMT-0400 (Eastern Daylight Time)","Thu Oct 01 2020 13:37:17 GMT-0400 (Eastern Daylight Time)","Mozilla/5.0 (Macintosh; Intel Mac OS X 10.11; rv:78.0) Gecko/20100101 Firefox/78.0",143,"[0.9, 0.5, 0.1]","[0.8, 0.4, 0.2]","[u'blue', u'red', u'black']","[u'left', u'middle', u'right']","[0.8, 0.4, 0.2]","[u'high', u'low', u'medium']","blue",49,"left","high","True","False",263,6350,NA
"A23WCDJKAT0RN5","Thu Oct 01 2020 13:29:43 GMT-0400 (Eastern Daylight Time)","Thu Oct 01 2020 13:37:17 GMT-0400 (Eastern Daylight Time)","Mozilla/5.0 (Macintosh; Intel Mac OS X 10.11; rv:78.0) Gecko/20100101 Firefox/78.0",144,"[0.9, 0.5, 0.1]","[0.8, 0.4, 0.2]","[u'blue', u'red', u'black']","[u'left', u'middle', u'right']","[0.8, 0.4, 0.2]","[u'high', u'low', u'medium']","blue",49,"left","high","True","False",312,6450,NA
"A23WCDJKAT0RN5","Thu Oct 01 2020 13:29:43 GMT-0400 (Eastern Daylight Time)","Thu Oct 01 2020 13:37:17 GMT-0400 (Eastern Daylight Time)","Mozilla/5.0 (Macintosh; Intel Mac OS X 10.11; rv:78.0) Gecko/20100101 Firefox/78.0",145,"[0.9, 0.5, 0.1]","[0.8, 0.4, 0.2]","[u'blue', u'red', u'black']","[u'left', u'middle', u'right']","[0.8, 0.4, 0.2]","[u'high', u'low', u'medium']","blue",49,"left","high","True","False",276,6550,NA
"A23WCDJKAT0RN5","Thu Oct 01 2020 13:29:43 GMT-0400 (Eastern Daylight Time)","Thu Oct 01 2020 13:37:17 GMT-0400 (Eastern Daylight Time)","Mozilla/5.0 (Macintosh; Intel Mac OS X 10.11; rv:78.0) Gecko/20100101 Firefox/78.0",146,"[0.9, 0.5, 0.1]","[0.8, 0.4, 0.2]","[u'blue', u'red', u'black']","[u'left', u'middle', u'right']","[0.8, 0.4, 0.2]","[u'high', u'low', u'medium']","blue",49,"left","high","True","False",1255,6650,NA
"A23WCDJKAT0RN5","Thu Oct 01 2020 13:29:43 GMT-0400 (Eastern Daylight Time)","Thu Oct 01 2020 13:37:17 GMT-0400 (Eastern Daylight Time)","Mozilla/5.0 (Macintosh; Intel Mac OS X 10.11; rv:78.0) Gecko/20100101 Firefox/78.0",147,"[0.9, 0.5, 0.1]","[0.8, 0.4, 0.2]","[u'blue', u'red', u'black']","[u'left', u'middle', u'right']","[0.8, 0.4, 0.2]","[u'high', u'low', u'medium']","blue",49,"left","high","True","False",287,6750,NA
"A23WCDJKAT0RN5","Thu Oct 01 2020 13:29:43 GMT-0400 (Eastern Daylight Time)","Thu Oct 01 2020 13:37:17 GMT-0400 (Eastern Daylight Time)","Mozilla/5.0 (Macintosh; Intel Mac OS X 10.11; rv:78.0) Gecko/20100101 Firefox/78.0",148,"[0.9, 0.5, 0.1]","[0.8, 0.4, 0.2]","[u'blue', u'red', u'black']","[u'left', u'middle', u'right']","[0.8, 0.4, 0.2]","[u'high', u'low', u'medium']","blue",49,"left","high","True","False",225,6850,NA
"A23WCDJKAT0RN5","Thu Oct 01 2020 13:29:43 GMT-0400 (Eastern Daylight Time)","Thu Oct 01 2020 13:37:17 GMT-0400 (Eastern Daylight Time)","Mozilla/5.0 (Macintosh; Intel Mac OS X 10.11; rv:78.0) Gecko/20100101 Firefox/78.0",149,"[0.9, 0.5, 0.1]","[0.8, 0.4, 0.2]","[u'blue', u'red', u'black']","[u'left', u'middle', u'right']","[0.8, 0.4, 0.2]","[u'high', u'low', u'medium']","blue",49,"left","high","True","False",272,6950,NA
"A23WCDJKAT0RN5","Thu Oct 01 2020 13:29:43 GMT-0400 (Eastern Daylight Time)","Thu Oct 01 2020 13:37:17 GMT-0400 (Eastern Daylight Time)","Mozilla/5.0 (Macintosh; Intel Mac OS X 10.11; rv:78.0) Gecko/20100101 Firefox/78.0",150,"[0.9, 0.5, 0.1]","[0.8, 0.4, 0.2]","[u'blue', u'red', u'black']","[u'left', u'middle', u'right']","[0.8, 0.4, 0.2]","[u'high', u'low', u'medium']","blue",49,"left","high","True","False",326,7050,NA
"A23WCDJKAT0RN5","Thu Oct 01 2020 13:29:43 GMT-0400 (Eastern Daylight Time)","Thu Oct 01 2020 13:37:17 GMT-0400 (Eastern Daylight Time)","Mozilla/5.0 (Macintosh; Intel Mac OS X 10.11; rv:78.0) Gecko/20100101 Firefox/78.0",151,"[0.9, 0.5, 0.1]","[0.8, 0.4, 0.2]","[u'blue', u'red', u'black']","[u'left', u'middle', u'right']","[0.8, 0.4, 0.2]","[u'high', u'low', u'medium']","blue",49,"left","high","True","True",302,7150,NA
"A23WCDJKAT0RN5","Thu Oct 01 2020 13:29:43 GMT-0400 (Eastern Daylight Time)","Thu Oct 01 2020 13:37:17 GMT-0400 (Eastern Daylight Time)","Mozilla/5.0 (Macintosh; Intel Mac OS X 10.11; rv:78.0) Gecko/20100101 Firefox/78.0",152,"[0.9, 0.5, 0.1]","[0.8, 0.4, 0.2]","[u'blue', u'red', u'black']","[u'left', u'middle', u'right']","[0.8, 0.4, 0.2]","[u'medium', u'high', u'low']","blue",49,"left","medium","True","False",259,7250,NA
"A23WCDJKAT0RN5","Thu Oct 01 2020 13:29:43 GMT-0400 (Eastern Daylight Time)","Thu Oct 01 2020 13:37:17 GMT-0400 (Eastern Daylight Time)","Mozilla/5.0 (Macintosh; Intel Mac OS X 10.11; rv:78.0) Gecko/20100101 Firefox/78.0",153,"[0.9, 0.5, 0.1]","[0.8, 0.4, 0.2]","[u'blue', u'red', u'black']","[u'left', u'middle', u'right']","[0.8, 0.4, 0.2]","[u'medium', u'high', u'low']","blue",49,"left","medium","False","False",122,7200,NA
"A23WCDJKAT0RN5","Thu Oct 01 2020 13:29:43 GMT-0400 (Eastern Daylight Time)","Thu Oct 01 2020 13:37:17 GMT-0400 (Eastern Daylight Time)","Mozilla/5.0 (Macintosh; Intel Mac OS X 10.11; rv:78.0) Gecko/20100101 Firefox/78.0",154,"[0.9, 0.5, 0.1]","[0.8, 0.4, 0.2]","[u'blue', u'red', u'black']","[u'left', u'middle', u'right']","[0.8, 0.4, 0.2]","[u'medium', u'high', u'low']","black",51,"right","low","False","False",352,7150,NA
"A23WCDJKAT0RN5","Thu Oct 01 2020 13:29:43 GMT-0400 (Eastern Daylight Time)","Thu Oct 01 2020 13:37:17 GMT-0400 (Eastern Daylight Time)","Mozilla/5.0 (Macintosh; Intel Mac OS X 10.11; rv:78.0) Gecko/20100101 Firefox/78.0",155,"[0.9, 0.5, 0.1]","[0.8, 0.4, 0.2]","[u'blue', u'red', u'black']","[u'left', u'middle', u'right']","[0.8, 0.4, 0.2]","[u'medium', u'high', u'low']","blue",49,"left","medium","True","False",376,7250,NA
"A23WCDJKAT0RN5","Thu Oct 01 2020 13:29:43 GMT-0400 (Eastern Daylight Time)","Thu Oct 01 2020 13:37:17 GMT-0400 (Eastern Daylight Time)","Mozilla/5.0 (Macintosh; Intel Mac OS X 10.11; rv:78.0) Gecko/20100101 Firefox/78.0",156,"[0.9, 0.5, 0.1]","[0.8, 0.4, 0.2]","[u'blue', u'red', u'black']","[u'left', u'middle', u'right']","[0.8, 0.4, 0.2]","[u'medium', u'high', u'low']","blue",49,"left","medium","False","False",328,7200,NA
"A23WCDJKAT0RN5","Thu Oct 01 2020 13:29:43 GMT-0400 (Eastern Daylight Time)","Thu Oct 01 2020 13:37:17 GMT-0400 (Eastern Daylight Time)","Mozilla/5.0 (Macintosh; Intel Mac OS X 10.11; rv:78.0) Gecko/20100101 Firefox/78.0",157,"[0.9, 0.5, 0.1]","[0.8, 0.4, 0.2]","[u'blue', u'red', u'black']","[u'left', u'middle', u'right']","[0.8, 0.4, 0.2]","[u'medium', u'high', u'low']","red",50,"middle","high","True","False",1096,7300,NA
"A23WCDJKAT0RN5","Thu Oct 01 2020 13:29:43 GMT-0400 (Eastern Daylight Time)","Thu Oct 01 2020 13:37:17 GMT-0400 (Eastern Daylight Time)","Mozilla/5.0 (Macintosh; Intel Mac OS X 10.11; rv:78.0) Gecko/20100101 Firefox/78.0",158,"[0.9, 0.5, 0.1]","[0.8, 0.4, 0.2]","[u'blue', u'red', u'black']","[u'left', u'middle', u'right']","[0.8, 0.4, 0.2]","[u'medium', u'high', u'low']","red",50,"middle","high","True","False",315,7400,NA
"A23WCDJKAT0RN5","Thu Oct 01 2020 13:29:43 GMT-0400 (Eastern Daylight Time)","Thu Oct 01 2020 13:37:17 GMT-0400 (Eastern Daylight Time)","Mozilla/5.0 (Macintosh; Intel Mac OS X 10.11; rv:78.0) Gecko/20100101 Firefox/78.0",159,"[0.9, 0.5, 0.1]","[0.8, 0.4, 0.2]","[u'blue', u'red', u'black']","[u'left', u'middle', u'right']","[0.8, 0.4, 0.2]","[u'medium', u'high', u'low']","blue",49,"left","medium","False","False",429,7350,NA
"A23WCDJKAT0RN5","Thu Oct 01 2020 13:29:43 GMT-0400 (Eastern Daylight Time)","Thu Oct 01 2020 13:37:17 GMT-0400 (Eastern Daylight Time)","Mozilla/5.0 (Macintosh; Intel Mac OS X 10.11; rv:78.0) Gecko/20100101 Firefox/78.0",160,"[0.9, 0.5, 0.1]","[0.8, 0.4, 0.2]","[u'blue', u'red', u'black']","[u'left', u'middle', u'right']","[0.8, 0.4, 0.2]","[u'medium', u'high', u'low']","red",50,"middle","high","True","False",296,7450,NA
