"src_subject_id","start_time","end_time","browser","index","first_half_probabilities","second_half_probabilities","deck_color","deck_position","deck_probabilities","deck_contingencies","response_color","key_press","response_position","response_probability","reward_type","trial_type","rt","reward_tally","exclusion_reason"
"A2YP60DM1HYTH8","Fri Oct 02 2020 10:39:29 GMT-0400 (Cuba Daylight Time)","Fri Oct 02 2020 10:45:45 GMT-0400 (Cuba Daylight Time)","Mozilla/5.0 (Windows NT 10.0; Win64; x64) AppleWebKit/537.36 (KHTML, like Gecko) Chrome/85.0.4183.121 Safari/537.36",1,"[0.9, 0.5, 0.1]","[0.8, 0.4, 0.2]","[u'red', u'black', u'blue']","[u'left', u'middle', u'right']","[0.9, 0.5, 0.1]","[u'high', u'medium', u'low']","black",50,"middle","medium","False","False",824,-50,NA
"A2YP60DM1HYTH8","Fri Oct 02 2020 10:39:29 GMT-0400 (Cuba Daylight Time)","Fri Oct 02 2020 10:45:45 GMT-0400 (Cuba Daylight Time)","Mozilla/5.0 (Windows NT 10.0; Win64; x64) AppleWebKit/537.36 (KHTML, like Gecko) Chrome/85.0.4183.121 Safari/537.36",2,"[0.9, 0.5, 0.1]","[0.8, 0.4, 0.2]","[u'red', u'black', u'blue']","[u'left', u'middle', u'right']","[0.9, 0.5, 0.1]","[u'high', u'medium', u'low']","blue",51,"right","low","False","False",454,-100,NA
"A2YP60DM1HYTH8","Fri Oct 02 2020 10:39:29 GMT-0400 (Cuba Daylight Time)","Fri Oct 02 2020 10:45:45 GMT-0400 (Cuba Daylight Time)","Mozilla/5.0 (Windows NT 10.0; Win64; x64) AppleWebKit/537.36 (KHTML, like Gecko) Chrome/85.0.4183.121 Safari/537.36",3,"[0.9, 0.5, 0.1]","[0.8, 0.4, 0.2]","[u'red', u'black', u'blue']","[u'left', u'middle', u'right']","[0.9, 0.5, 0.1]","[u'high', u'medium', u'low']","red",49,"left","high","True","False",256,0,NA
"A2YP60DM1HYTH8","Fri Oct 02 2020 10:39:29 GMT-0400 (Cuba Daylight Time)","Fri Oct 02 2020 10:45:45 GMT-0400 (Cuba Daylight Time)","Mozilla/5.0 (Windows NT 10.0; Win64; x64) AppleWebKit/537.36 (KHTML, like Gecko) Chrome/85.0.4183.121 Safari/537.36",4,"[0.9, 0.5, 0.1]","[0.8, 0.4, 0.2]","[u'red', u'black', u'blue']","[u'left', u'middle', u'right']","[0.9, 0.5, 0.1]","[u'high', u'medium', u'low']","red",49,"left","high","True","False",397,100,NA
"A2YP60DM1HYTH8","Fri Oct 02 2020 10:39:29 GMT-0400 (Cuba Daylight Time)","Fri Oct 02 2020 10:45:45 GMT-0400 (Cuba Daylight Time)","Mozilla/5.0 (Windows NT 10.0; Win64; x64) AppleWebKit/537.36 (KHTML, like Gecko) Chrome/85.0.4183.121 Safari/537.36",5,"[0.9, 0.5, 0.1]","[0.8, 0.4, 0.2]","[u'red', u'black', u'blue']","[u'left', u'middle', u'right']","[0.9, 0.5, 0.1]","[u'high', u'medium', u'low']","red",49,"left","high","False","False",328,50,NA
"A2YP60DM1HYTH8","Fri Oct 02 2020 10:39:29 GMT-0400 (Cuba Daylight Time)","Fri Oct 02 2020 10:45:45 GMT-0400 (Cuba Daylight Time)","Mozilla/5.0 (Windows NT 10.0; Win64; x64) AppleWebKit/537.36 (KHTML, like Gecko) Chrome/85.0.4183.121 Safari/537.36",6,"[0.9, 0.5, 0.1]","[0.8, 0.4, 0.2]","[u'red', u'black', u'blue']","[u'left', u'middle', u'right']","[0.9, 0.5, 0.1]","[u'high', u'medium', u'low']","black",50,"middle","medium","False","False",213,0,NA
"A2YP60DM1HYTH8","Fri Oct 02 2020 10:39:29 GMT-0400 (Cuba Daylight Time)","Fri Oct 02 2020 10:45:45 GMT-0400 (Cuba Daylight Time)","Mozilla/5.0 (Windows NT 10.0; Win64; x64) AppleWebKit/537.36 (KHTML, like Gecko) Chrome/85.0.4183.121 Safari/537.36",7,"[0.9, 0.5, 0.1]","[0.8, 0.4, 0.2]","[u'red', u'black', u'blue']","[u'left', u'middle', u'right']","[0.9, 0.5, 0.1]","[u'high', u'medium', u'low']","blue",51,"right","low","False","False",227,-50,NA
"A2YP60DM1HYTH8","Fri Oct 02 2020 10:39:29 GMT-0400 (Cuba Daylight Time)","Fri Oct 02 2020 10:45:45 GMT-0400 (Cuba Daylight Time)","Mozilla/5.0 (Windows NT 10.0; Win64; x64) AppleWebKit/537.36 (KHTML, like Gecko) Chrome/85.0.4183.121 Safari/537.36",8,"[0.9, 0.5, 0.1]","[0.8, 0.4, 0.2]","[u'red', u'black', u'blue']","[u'left', u'middle', u'right']","[0.9, 0.5, 0.1]","[u'high', u'medium', u'low']","red",49,"left","high","False","False",236,-100,NA
"A2YP60DM1HYTH8","Fri Oct 02 2020 10:39:29 GMT-0400 (Cuba Daylight Time)","Fri Oct 02 2020 10:45:45 GMT-0400 (Cuba Daylight Time)","Mozilla/5.0 (Windows NT 10.0; Win64; x64) AppleWebKit/537.36 (KHTML, like Gecko) Chrome/85.0.4183.121 Safari/537.36",9,"[0.9, 0.5, 0.1]","[0.8, 0.4, 0.2]","[u'red', u'black', u'blue']","[u'left', u'middle', u'right']","[0.9, 0.5, 0.1]","[u'high', u'medium', u'low']","black",50,"middle","medium","False","False",214,-150,NA
"A2YP60DM1HYTH8","Fri Oct 02 2020 10:39:29 GMT-0400 (Cuba Daylight Time)","Fri Oct 02 2020 10:45:45 GMT-0400 (Cuba Daylight Time)","Mozilla/5.0 (Windows NT 10.0; Win64; x64) AppleWebKit/537.36 (KHTML, like Gecko) Chrome/85.0.4183.121 Safari/537.36",10,"[0.9, 0.5, 0.1]","[0.8, 0.4, 0.2]","[u'red', u'black', u'blue']","[u'left', u'middle', u'right']","[0.9, 0.5, 0.1]","[u'high', u'medium', u'low']","blue",51,"right","low","False","False",253,-200,NA
"A2YP60DM1HYTH8","Fri Oct 02 2020 10:39:29 GMT-0400 (Cuba Daylight Time)","Fri Oct 02 2020 10:45:45 GMT-0400 (Cuba Daylight Time)","Mozilla/5.0 (Windows NT 10.0; Win64; x64) AppleWebKit/537.36 (KHTML, like Gecko) Chrome/85.0.4183.121 Safari/537.36",11,"[0.9, 0.5, 0.1]","[0.8, 0.4, 0.2]","[u'red', u'black', u'blue']","[u'left', u'middle', u'right']","[0.9, 0.5, 0.1]","[u'high', u'medium', u'low']","red",49,"left","high","True","False",313,-100,NA
"A2YP60DM1HYTH8","Fri Oct 02 2020 10:39:29 GMT-0400 (Cuba Daylight Time)","Fri Oct 02 2020 10:45:45 GMT-0400 (Cuba Daylight Time)","Mozilla/5.0 (Windows NT 10.0; Win64; x64) AppleWebKit/537.36 (KHTML, like Gecko) Chrome/85.0.4183.121 Safari/537.36",12,"[0.9, 0.5, 0.1]","[0.8, 0.4, 0.2]","[u'red', u'black', u'blue']","[u'left', u'middle', u'right']","[0.9, 0.5, 0.1]","[u'high', u'medium', u'low']","red",49,"left","high","True","False",227,0,NA
"A2YP60DM1HYTH8","Fri Oct 02 2020 10:39:29 GMT-0400 (Cuba Daylight Time)","Fri Oct 02 2020 10:45:45 GMT-0400 (Cuba Daylight Time)","Mozilla/5.0 (Windows NT 10.0; Win64; x64) AppleWebKit/537.36 (KHTML, like Gecko) Chrome/85.0.4183.121 Safari/537.36",13,"[0.9, 0.5, 0.1]","[0.8, 0.4, 0.2]","[u'red', u'black', u'blue']","[u'left', u'middle', u'right']","[0.9, 0.5, 0.1]","[u'high', u'medium', u'low']","red",49,"left","high","True","False",239,100,NA
"A2YP60DM1HYTH8","Fri Oct 02 2020 10:39:29 GMT-0400 (Cuba Daylight Time)","Fri Oct 02 2020 10:45:45 GMT-0400 (Cuba Daylight Time)","Mozilla/5.0 (Windows NT 10.0; Win64; x64) AppleWebKit/537.36 (KHTML, like Gecko) Chrome/85.0.4183.121 Safari/537.36",14,"[0.9, 0.5, 0.1]","[0.8, 0.4, 0.2]","[u'red', u'black', u'blue']","[u'left', u'middle', u'right']","[0.9, 0.5, 0.1]","[u'high', u'medium', u'low']","black",50,"middle","medium","False","False",176,50,NA
"A2YP60DM1HYTH8","Fri Oct 02 2020 10:39:29 GMT-0400 (Cuba Daylight Time)","Fri Oct 02 2020 10:45:45 GMT-0400 (Cuba Daylight Time)","Mozilla/5.0 (Windows NT 10.0; Win64; x64) AppleWebKit/537.36 (KHTML, like Gecko) Chrome/85.0.4183.121 Safari/537.36",15,"[0.9, 0.5, 0.1]","[0.8, 0.4, 0.2]","[u'red', u'black', u'blue']","[u'left', u'middle', u'right']","[0.9, 0.5, 0.1]","[u'high', u'medium', u'low']","red",49,"left","high","True","False",379,150,NA
"A2YP60DM1HYTH8","Fri Oct 02 2020 10:39:29 GMT-0400 (Cuba Daylight Time)","Fri Oct 02 2020 10:45:45 GMT-0400 (Cuba Daylight Time)","Mozilla/5.0 (Windows NT 10.0; Win64; x64) AppleWebKit/537.36 (KHTML, like Gecko) Chrome/85.0.4183.121 Safari/537.36",16,"[0.9, 0.5, 0.1]","[0.8, 0.4, 0.2]","[u'red', u'black', u'blue']","[u'left', u'middle', u'right']","[0.9, 0.5, 0.1]","[u'high', u'medium', u'low']","red",49,"left","high","True","False",275,250,NA
"A2YP60DM1HYTH8","Fri Oct 02 2020 10:39:29 GMT-0400 (Cuba Daylight Time)","Fri Oct 02 2020 10:45:45 GMT-0400 (Cuba Daylight Time)","Mozilla/5.0 (Windows NT 10.0; Win64; x64) AppleWebKit/537.36 (KHTML, like Gecko) Chrome/85.0.4183.121 Safari/537.36",17,"[0.9, 0.5, 0.1]","[0.8, 0.4, 0.2]","[u'red', u'black', u'blue']","[u'left', u'middle', u'right']","[0.9, 0.5, 0.1]","[u'high', u'medium', u'low']","red",49,"left","high","True","False",245,350,NA
"A2YP60DM1HYTH8","Fri Oct 02 2020 10:39:29 GMT-0400 (Cuba Daylight Time)","Fri Oct 02 2020 10:45:45 GMT-0400 (Cuba Daylight Time)","Mozilla/5.0 (Windows NT 10.0; Win64; x64) AppleWebKit/537.36 (KHTML, like Gecko) Chrome/85.0.4183.121 Safari/537.36",18,"[0.9, 0.5, 0.1]","[0.8, 0.4, 0.2]","[u'red', u'black', u'blue']","[u'left', u'middle', u'right']","[0.9, 0.5, 0.1]","[u'high', u'medium', u'low']","red",49,"left","high","False","False",260,300,NA
"A2YP60DM1HYTH8","Fri Oct 02 2020 10:39:29 GMT-0400 (Cuba Daylight Time)","Fri Oct 02 2020 10:45:45 GMT-0400 (Cuba Daylight Time)","Mozilla/5.0 (Windows NT 10.0; Win64; x64) AppleWebKit/537.36 (KHTML, like Gecko) Chrome/85.0.4183.121 Safari/537.36",19,"[0.9, 0.5, 0.1]","[0.8, 0.4, 0.2]","[u'red', u'black', u'blue']","[u'left', u'middle', u'right']","[0.9, 0.5, 0.1]","[u'high', u'medium', u'low']","black",50,"middle","medium","True","False",263,400,NA
"A2YP60DM1HYTH8","Fri Oct 02 2020 10:39:29 GMT-0400 (Cuba Daylight Time)","Fri Oct 02 2020 10:45:45 GMT-0400 (Cuba Daylight Time)","Mozilla/5.0 (Windows NT 10.0; Win64; x64) AppleWebKit/537.36 (KHTML, like Gecko) Chrome/85.0.4183.121 Safari/537.36",20,"[0.9, 0.5, 0.1]","[0.8, 0.4, 0.2]","[u'red', u'black', u'blue']","[u'left', u'middle', u'right']","[0.9, 0.5, 0.1]","[u'high', u'medium', u'low']","black",50,"middle","medium","True","False",199,500,NA
"A2YP60DM1HYTH8","Fri Oct 02 2020 10:39:29 GMT-0400 (Cuba Daylight Time)","Fri Oct 02 2020 10:45:45 GMT-0400 (Cuba Daylight Time)","Mozilla/5.0 (Windows NT 10.0; Win64; x64) AppleWebKit/537.36 (KHTML, like Gecko) Chrome/85.0.4183.121 Safari/537.36",21,"[0.9, 0.5, 0.1]","[0.8, 0.4, 0.2]","[u'red', u'black', u'blue']","[u'left', u'middle', u'right']","[0.9, 0.5, 0.1]","[u'high', u'medium', u'low']","black",50,"middle","medium","True","False",210,600,NA
"A2YP60DM1HYTH8","Fri Oct 02 2020 10:39:29 GMT-0400 (Cuba Daylight Time)","Fri Oct 02 2020 10:45:45 GMT-0400 (Cuba Daylight Time)","Mozilla/5.0 (Windows NT 10.0; Win64; x64) AppleWebKit/537.36 (KHTML, like Gecko) Chrome/85.0.4183.121 Safari/537.36",22,"[0.9, 0.5, 0.1]","[0.8, 0.4, 0.2]","[u'red', u'black', u'blue']","[u'left', u'middle', u'right']","[0.9, 0.5, 0.1]","[u'high', u'medium', u'low']","blue",51,"right","low","False","False",307,550,NA
"A2YP60DM1HYTH8","Fri Oct 02 2020 10:39:29 GMT-0400 (Cuba Daylight Time)","Fri Oct 02 2020 10:45:45 GMT-0400 (Cuba Daylight Time)","Mozilla/5.0 (Windows NT 10.0; Win64; x64) AppleWebKit/537.36 (KHTML, like Gecko) Chrome/85.0.4183.121 Safari/537.36",23,"[0.9, 0.5, 0.1]","[0.8, 0.4, 0.2]","[u'red', u'black', u'blue']","[u'left', u'middle', u'right']","[0.9, 0.5, 0.1]","[u'high', u'medium', u'low']","black",50,"middle","medium","True","False",205,650,NA
"A2YP60DM1HYTH8","Fri Oct 02 2020 10:39:29 GMT-0400 (Cuba Daylight Time)","Fri Oct 02 2020 10:45:45 GMT-0400 (Cuba Daylight Time)","Mozilla/5.0 (Windows NT 10.0; Win64; x64) AppleWebKit/537.36 (KHTML, like Gecko) Chrome/85.0.4183.121 Safari/537.36",24,"[0.9, 0.5, 0.1]","[0.8, 0.4, 0.2]","[u'red', u'black', u'blue']","[u'left', u'middle', u'right']","[0.9, 0.5, 0.1]","[u'high', u'medium', u'low']","black",50,"middle","medium","False","False",154,600,NA
"A2YP60DM1HYTH8","Fri Oct 02 2020 10:39:29 GMT-0400 (Cuba Daylight Time)","Fri Oct 02 2020 10:45:45 GMT-0400 (Cuba Daylight Time)","Mozilla/5.0 (Windows NT 10.0; Win64; x64) AppleWebKit/537.36 (KHTML, like Gecko) Chrome/85.0.4183.121 Safari/537.36",25,"[0.9, 0.5, 0.1]","[0.8, 0.4, 0.2]","[u'red', u'black', u'blue']","[u'left', u'middle', u'right']","[0.9, 0.5, 0.1]","[u'high', u'medium', u'low']","blue",51,"right","low","False","False",283,550,NA
"A2YP60DM1HYTH8","Fri Oct 02 2020 10:39:29 GMT-0400 (Cuba Daylight Time)","Fri Oct 02 2020 10:45:45 GMT-0400 (Cuba Daylight Time)","Mozilla/5.0 (Windows NT 10.0; Win64; x64) AppleWebKit/537.36 (KHTML, like Gecko) Chrome/85.0.4183.121 Safari/537.36",26,"[0.9, 0.5, 0.1]","[0.8, 0.4, 0.2]","[u'red', u'black', u'blue']","[u'left', u'middle', u'right']","[0.9, 0.5, 0.1]","[u'high', u'medium', u'low']","red",49,"left","high","True","False",204,650,NA
"A2YP60DM1HYTH8","Fri Oct 02 2020 10:39:29 GMT-0400 (Cuba Daylight Time)","Fri Oct 02 2020 10:45:45 GMT-0400 (Cuba Daylight Time)","Mozilla/5.0 (Windows NT 10.0; Win64; x64) AppleWebKit/537.36 (KHTML, like Gecko) Chrome/85.0.4183.121 Safari/537.36",27,"[0.9, 0.5, 0.1]","[0.8, 0.4, 0.2]","[u'red', u'black', u'blue']","[u'left', u'middle', u'right']","[0.9, 0.5, 0.1]","[u'high', u'medium', u'low']","red",49,"left","high","True","False",230,750,NA
"A2YP60DM1HYTH8","Fri Oct 02 2020 10:39:29 GMT-0400 (Cuba Daylight Time)","Fri Oct 02 2020 10:45:45 GMT-0400 (Cuba Daylight Time)","Mozilla/5.0 (Windows NT 10.0; Win64; x64) AppleWebKit/537.36 (KHTML, like Gecko) Chrome/85.0.4183.121 Safari/537.36",28,"[0.9, 0.5, 0.1]","[0.8, 0.4, 0.2]","[u'red', u'black', u'blue']","[u'left', u'middle', u'right']","[0.9, 0.5, 0.1]","[u'high', u'medium', u'low']","black",50,"middle","medium","False","False",371,700,NA
"A2YP60DM1HYTH8","Fri Oct 02 2020 10:39:29 GMT-0400 (Cuba Daylight Time)","Fri Oct 02 2020 10:45:45 GMT-0400 (Cuba Daylight Time)","Mozilla/5.0 (Windows NT 10.0; Win64; x64) AppleWebKit/537.36 (KHTML, like Gecko) Chrome/85.0.4183.121 Safari/537.36",29,"[0.9, 0.5, 0.1]","[0.8, 0.4, 0.2]","[u'red', u'black', u'blue']","[u'left', u'middle', u'right']","[0.9, 0.5, 0.1]","[u'high', u'medium', u'low']","red",49,"left","high","True","False",243,800,NA
"A2YP60DM1HYTH8","Fri Oct 02 2020 10:39:29 GMT-0400 (Cuba Daylight Time)","Fri Oct 02 2020 10:45:45 GMT-0400 (Cuba Daylight Time)","Mozilla/5.0 (Windows NT 10.0; Win64; x64) AppleWebKit/537.36 (KHTML, like Gecko) Chrome/85.0.4183.121 Safari/537.36",30,"[0.9, 0.5, 0.1]","[0.8, 0.4, 0.2]","[u'red', u'black', u'blue']","[u'left', u'middle', u'right']","[0.9, 0.5, 0.1]","[u'high', u'medium', u'low']","red",49,"left","high","True","False",213,900,NA
"A2YP60DM1HYTH8","Fri Oct 02 2020 10:39:29 GMT-0400 (Cuba Daylight Time)","Fri Oct 02 2020 10:45:45 GMT-0400 (Cuba Daylight Time)","Mozilla/5.0 (Windows NT 10.0; Win64; x64) AppleWebKit/537.36 (KHTML, like Gecko) Chrome/85.0.4183.121 Safari/537.36",31,"[0.9, 0.5, 0.1]","[0.8, 0.4, 0.2]","[u'red', u'black', u'blue']","[u'left', u'middle', u'right']","[0.9, 0.5, 0.1]","[u'high', u'medium', u'low']","red",49,"left","high","True","False",197,1000,NA
"A2YP60DM1HYTH8","Fri Oct 02 2020 10:39:29 GMT-0400 (Cuba Daylight Time)","Fri Oct 02 2020 10:45:45 GMT-0400 (Cuba Daylight Time)","Mozilla/5.0 (Windows NT 10.0; Win64; x64) AppleWebKit/537.36 (KHTML, like Gecko) Chrome/85.0.4183.121 Safari/537.36",32,"[0.9, 0.5, 0.1]","[0.8, 0.4, 0.2]","[u'red', u'black', u'blue']","[u'left', u'middle', u'right']","[0.9, 0.5, 0.1]","[u'high', u'medium', u'low']","red",49,"left","high","True","False",250,1100,NA
"A2YP60DM1HYTH8","Fri Oct 02 2020 10:39:29 GMT-0400 (Cuba Daylight Time)","Fri Oct 02 2020 10:45:45 GMT-0400 (Cuba Daylight Time)","Mozilla/5.0 (Windows NT 10.0; Win64; x64) AppleWebKit/537.36 (KHTML, like Gecko) Chrome/85.0.4183.121 Safari/537.36",33,"[0.9, 0.5, 0.1]","[0.8, 0.4, 0.2]","[u'red', u'black', u'blue']","[u'left', u'middle', u'right']","[0.9, 0.5, 0.1]","[u'high', u'medium', u'low']","red",49,"left","high","True","False",230,1200,NA
"A2YP60DM1HYTH8","Fri Oct 02 2020 10:39:29 GMT-0400 (Cuba Daylight Time)","Fri Oct 02 2020 10:45:45 GMT-0400 (Cuba Daylight Time)","Mozilla/5.0 (Windows NT 10.0; Win64; x64) AppleWebKit/537.36 (KHTML, like Gecko) Chrome/85.0.4183.121 Safari/537.36",34,"[0.9, 0.5, 0.1]","[0.8, 0.4, 0.2]","[u'red', u'black', u'blue']","[u'left', u'middle', u'right']","[0.9, 0.5, 0.1]","[u'high', u'medium', u'low']","red",49,"left","high","True","False",309,1300,NA
"A2YP60DM1HYTH8","Fri Oct 02 2020 10:39:29 GMT-0400 (Cuba Daylight Time)","Fri Oct 02 2020 10:45:45 GMT-0400 (Cuba Daylight Time)","Mozilla/5.0 (Windows NT 10.0; Win64; x64) AppleWebKit/537.36 (KHTML, like Gecko) Chrome/85.0.4183.121 Safari/537.36",35,"[0.9, 0.5, 0.1]","[0.8, 0.4, 0.2]","[u'red', u'black', u'blue']","[u'left', u'middle', u'right']","[0.9, 0.5, 0.1]","[u'high', u'medium', u'low']","red",49,"left","high","True","True",249,1400,NA
"A2YP60DM1HYTH8","Fri Oct 02 2020 10:39:29 GMT-0400 (Cuba Daylight Time)","Fri Oct 02 2020 10:45:45 GMT-0400 (Cuba Daylight Time)","Mozilla/5.0 (Windows NT 10.0; Win64; x64) AppleWebKit/537.36 (KHTML, like Gecko) Chrome/85.0.4183.121 Safari/537.36",36,"[0.9, 0.5, 0.1]","[0.8, 0.4, 0.2]","[u'red', u'black', u'blue']","[u'left', u'middle', u'right']","[0.9, 0.5, 0.1]","[u'low', u'medium', u'high']","red",49,"left","low","True","False",177,1500,NA
"A2YP60DM1HYTH8","Fri Oct 02 2020 10:39:29 GMT-0400 (Cuba Daylight Time)","Fri Oct 02 2020 10:45:45 GMT-0400 (Cuba Daylight Time)","Mozilla/5.0 (Windows NT 10.0; Win64; x64) AppleWebKit/537.36 (KHTML, like Gecko) Chrome/85.0.4183.121 Safari/537.36",37,"[0.9, 0.5, 0.1]","[0.8, 0.4, 0.2]","[u'red', u'black', u'blue']","[u'left', u'middle', u'right']","[0.9, 0.5, 0.1]","[u'low', u'medium', u'high']","red",49,"left","low","False","False",242,1450,NA
"A2YP60DM1HYTH8","Fri Oct 02 2020 10:39:29 GMT-0400 (Cuba Daylight Time)","Fri Oct 02 2020 10:45:45 GMT-0400 (Cuba Daylight Time)","Mozilla/5.0 (Windows NT 10.0; Win64; x64) AppleWebKit/537.36 (KHTML, like Gecko) Chrome/85.0.4183.121 Safari/537.36",38,"[0.9, 0.5, 0.1]","[0.8, 0.4, 0.2]","[u'red', u'black', u'blue']","[u'left', u'middle', u'right']","[0.9, 0.5, 0.1]","[u'low', u'medium', u'high']","black",50,"middle","medium","True","False",175,1550,NA
"A2YP60DM1HYTH8","Fri Oct 02 2020 10:39:29 GMT-0400 (Cuba Daylight Time)","Fri Oct 02 2020 10:45:45 GMT-0400 (Cuba Daylight Time)","Mozilla/5.0 (Windows NT 10.0; Win64; x64) AppleWebKit/537.36 (KHTML, like Gecko) Chrome/85.0.4183.121 Safari/537.36",39,"[0.9, 0.5, 0.1]","[0.8, 0.4, 0.2]","[u'red', u'black', u'blue']","[u'left', u'middle', u'right']","[0.9, 0.5, 0.1]","[u'low', u'medium', u'high']","black",50,"middle","medium","False","False",216,1500,NA
"A2YP60DM1HYTH8","Fri Oct 02 2020 10:39:29 GMT-0400 (Cuba Daylight Time)","Fri Oct 02 2020 10:45:45 GMT-0400 (Cuba Daylight Time)","Mozilla/5.0 (Windows NT 10.0; Win64; x64) AppleWebKit/537.36 (KHTML, like Gecko) Chrome/85.0.4183.121 Safari/537.36",40,"[0.9, 0.5, 0.1]","[0.8, 0.4, 0.2]","[u'red', u'black', u'blue']","[u'left', u'middle', u'right']","[0.9, 0.5, 0.1]","[u'low', u'medium', u'high']","blue",51,"right","high","True","False",225,1600,NA
"A2YP60DM1HYTH8","Fri Oct 02 2020 10:39:29 GMT-0400 (Cuba Daylight Time)","Fri Oct 02 2020 10:45:45 GMT-0400 (Cuba Daylight Time)","Mozilla/5.0 (Windows NT 10.0; Win64; x64) AppleWebKit/537.36 (KHTML, like Gecko) Chrome/85.0.4183.121 Safari/537.36",41,"[0.9, 0.5, 0.1]","[0.8, 0.4, 0.2]","[u'red', u'black', u'blue']","[u'left', u'middle', u'right']","[0.9, 0.5, 0.1]","[u'high', u'low', u'medium']","blue",51,"right","medium","False","False",852,1550,NA
"A2YP60DM1HYTH8","Fri Oct 02 2020 10:39:29 GMT-0400 (Cuba Daylight Time)","Fri Oct 02 2020 10:45:45 GMT-0400 (Cuba Daylight Time)","Mozilla/5.0 (Windows NT 10.0; Win64; x64) AppleWebKit/537.36 (KHTML, like Gecko) Chrome/85.0.4183.121 Safari/537.36",42,"[0.9, 0.5, 0.1]","[0.8, 0.4, 0.2]","[u'red', u'black', u'blue']","[u'left', u'middle', u'right']","[0.9, 0.5, 0.1]","[u'high', u'low', u'medium']","red",49,"left","high","True","False",298,1650,NA
"A2YP60DM1HYTH8","Fri Oct 02 2020 10:39:29 GMT-0400 (Cuba Daylight Time)","Fri Oct 02 2020 10:45:45 GMT-0400 (Cuba Daylight Time)","Mozilla/5.0 (Windows NT 10.0; Win64; x64) AppleWebKit/537.36 (KHTML, like Gecko) Chrome/85.0.4183.121 Safari/537.36",43,"[0.9, 0.5, 0.1]","[0.8, 0.4, 0.2]","[u'red', u'black', u'blue']","[u'left', u'middle', u'right']","[0.9, 0.5, 0.1]","[u'high', u'low', u'medium']","red",49,"left","high","True","False",119,1750,NA
"A2YP60DM1HYTH8","Fri Oct 02 2020 10:39:29 GMT-0400 (Cuba Daylight Time)","Fri Oct 02 2020 10:45:45 GMT-0400 (Cuba Daylight Time)","Mozilla/5.0 (Windows NT 10.0; Win64; x64) AppleWebKit/537.36 (KHTML, like Gecko) Chrome/85.0.4183.121 Safari/537.36",44,"[0.9, 0.5, 0.1]","[0.8, 0.4, 0.2]","[u'red', u'black', u'blue']","[u'left', u'middle', u'right']","[0.9, 0.5, 0.1]","[u'high', u'low', u'medium']","red",49,"left","high","True","False",265,1850,NA
"A2YP60DM1HYTH8","Fri Oct 02 2020 10:39:29 GMT-0400 (Cuba Daylight Time)","Fri Oct 02 2020 10:45:45 GMT-0400 (Cuba Daylight Time)","Mozilla/5.0 (Windows NT 10.0; Win64; x64) AppleWebKit/537.36 (KHTML, like Gecko) Chrome/85.0.4183.121 Safari/537.36",45,"[0.9, 0.5, 0.1]","[0.8, 0.4, 0.2]","[u'red', u'black', u'blue']","[u'left', u'middle', u'right']","[0.9, 0.5, 0.1]","[u'high', u'low', u'medium']","red",49,"left","high","True","False",201,1950,NA
"A2YP60DM1HYTH8","Fri Oct 02 2020 10:39:29 GMT-0400 (Cuba Daylight Time)","Fri Oct 02 2020 10:45:45 GMT-0400 (Cuba Daylight Time)","Mozilla/5.0 (Windows NT 10.0; Win64; x64) AppleWebKit/537.36 (KHTML, like Gecko) Chrome/85.0.4183.121 Safari/537.36",46,"[0.9, 0.5, 0.1]","[0.8, 0.4, 0.2]","[u'red', u'black', u'blue']","[u'left', u'middle', u'right']","[0.9, 0.5, 0.1]","[u'high', u'low', u'medium']","red",49,"left","high","True","False",199,2050,NA
"A2YP60DM1HYTH8","Fri Oct 02 2020 10:39:29 GMT-0400 (Cuba Daylight Time)","Fri Oct 02 2020 10:45:45 GMT-0400 (Cuba Daylight Time)","Mozilla/5.0 (Windows NT 10.0; Win64; x64) AppleWebKit/537.36 (KHTML, like Gecko) Chrome/85.0.4183.121 Safari/537.36",47,"[0.9, 0.5, 0.1]","[0.8, 0.4, 0.2]","[u'red', u'black', u'blue']","[u'left', u'middle', u'right']","[0.9, 0.5, 0.1]","[u'high', u'low', u'medium']","red",49,"left","high","True","False",182,2150,NA
"A2YP60DM1HYTH8","Fri Oct 02 2020 10:39:29 GMT-0400 (Cuba Daylight Time)","Fri Oct 02 2020 10:45:45 GMT-0400 (Cuba Daylight Time)","Mozilla/5.0 (Windows NT 10.0; Win64; x64) AppleWebKit/537.36 (KHTML, like Gecko) Chrome/85.0.4183.121 Safari/537.36",48,"[0.9, 0.5, 0.1]","[0.8, 0.4, 0.2]","[u'red', u'black', u'blue']","[u'left', u'middle', u'right']","[0.9, 0.5, 0.1]","[u'high', u'low', u'medium']","red",49,"left","high","True","False",219,2250,NA
"A2YP60DM1HYTH8","Fri Oct 02 2020 10:39:29 GMT-0400 (Cuba Daylight Time)","Fri Oct 02 2020 10:45:45 GMT-0400 (Cuba Daylight Time)","Mozilla/5.0 (Windows NT 10.0; Win64; x64) AppleWebKit/537.36 (KHTML, like Gecko) Chrome/85.0.4183.121 Safari/537.36",49,"[0.9, 0.5, 0.1]","[0.8, 0.4, 0.2]","[u'red', u'black', u'blue']","[u'left', u'middle', u'right']","[0.9, 0.5, 0.1]","[u'high', u'low', u'medium']","red",49,"left","high","True","False",193,2350,NA
"A2YP60DM1HYTH8","Fri Oct 02 2020 10:39:29 GMT-0400 (Cuba Daylight Time)","Fri Oct 02 2020 10:45:45 GMT-0400 (Cuba Daylight Time)","Mozilla/5.0 (Windows NT 10.0; Win64; x64) AppleWebKit/537.36 (KHTML, like Gecko) Chrome/85.0.4183.121 Safari/537.36",50,"[0.9, 0.5, 0.1]","[0.8, 0.4, 0.2]","[u'red', u'black', u'blue']","[u'left', u'middle', u'right']","[0.9, 0.5, 0.1]","[u'high', u'low', u'medium']","red",49,"left","high","False","True",75,2300,NA
"A2YP60DM1HYTH8","Fri Oct 02 2020 10:39:29 GMT-0400 (Cuba Daylight Time)","Fri Oct 02 2020 10:45:45 GMT-0400 (Cuba Daylight Time)","Mozilla/5.0 (Windows NT 10.0; Win64; x64) AppleWebKit/537.36 (KHTML, like Gecko) Chrome/85.0.4183.121 Safari/537.36",51,"[0.9, 0.5, 0.1]","[0.8, 0.4, 0.2]","[u'red', u'black', u'blue']","[u'left', u'middle', u'right']","[0.9, 0.5, 0.1]","[u'low', u'medium', u'high']","black",50,"middle","medium","True","False",131,2400,NA
"A2YP60DM1HYTH8","Fri Oct 02 2020 10:39:29 GMT-0400 (Cuba Daylight Time)","Fri Oct 02 2020 10:45:45 GMT-0400 (Cuba Daylight Time)","Mozilla/5.0 (Windows NT 10.0; Win64; x64) AppleWebKit/537.36 (KHTML, like Gecko) Chrome/85.0.4183.121 Safari/537.36",52,"[0.9, 0.5, 0.1]","[0.8, 0.4, 0.2]","[u'red', u'black', u'blue']","[u'left', u'middle', u'right']","[0.9, 0.5, 0.1]","[u'low', u'medium', u'high']","black",50,"middle","medium","False","False",201,2350,NA
"A2YP60DM1HYTH8","Fri Oct 02 2020 10:39:29 GMT-0400 (Cuba Daylight Time)","Fri Oct 02 2020 10:45:45 GMT-0400 (Cuba Daylight Time)","Mozilla/5.0 (Windows NT 10.0; Win64; x64) AppleWebKit/537.36 (KHTML, like Gecko) Chrome/85.0.4183.121 Safari/537.36",53,"[0.9, 0.5, 0.1]","[0.8, 0.4, 0.2]","[u'red', u'black', u'blue']","[u'left', u'middle', u'right']","[0.9, 0.5, 0.1]","[u'low', u'medium', u'high']","blue",51,"right","high","True","False",255,2450,NA
"A2YP60DM1HYTH8","Fri Oct 02 2020 10:39:29 GMT-0400 (Cuba Daylight Time)","Fri Oct 02 2020 10:45:45 GMT-0400 (Cuba Daylight Time)","Mozilla/5.0 (Windows NT 10.0; Win64; x64) AppleWebKit/537.36 (KHTML, like Gecko) Chrome/85.0.4183.121 Safari/537.36",54,"[0.9, 0.5, 0.1]","[0.8, 0.4, 0.2]","[u'red', u'black', u'blue']","[u'left', u'middle', u'right']","[0.9, 0.5, 0.1]","[u'low', u'medium', u'high']","blue",51,"right","high","True","False",297,2550,NA
"A2YP60DM1HYTH8","Fri Oct 02 2020 10:39:29 GMT-0400 (Cuba Daylight Time)","Fri Oct 02 2020 10:45:45 GMT-0400 (Cuba Daylight Time)","Mozilla/5.0 (Windows NT 10.0; Win64; x64) AppleWebKit/537.36 (KHTML, like Gecko) Chrome/85.0.4183.121 Safari/537.36",55,"[0.9, 0.5, 0.1]","[0.8, 0.4, 0.2]","[u'red', u'black', u'blue']","[u'left', u'middle', u'right']","[0.9, 0.5, 0.1]","[u'low', u'medium', u'high']","blue",51,"right","high","True","False",229,2650,NA
"A2YP60DM1HYTH8","Fri Oct 02 2020 10:39:29 GMT-0400 (Cuba Daylight Time)","Fri Oct 02 2020 10:45:45 GMT-0400 (Cuba Daylight Time)","Mozilla/5.0 (Windows NT 10.0; Win64; x64) AppleWebKit/537.36 (KHTML, like Gecko) Chrome/85.0.4183.121 Safari/537.36",56,"[0.9, 0.5, 0.1]","[0.8, 0.4, 0.2]","[u'red', u'black', u'blue']","[u'left', u'middle', u'right']","[0.9, 0.5, 0.1]","[u'low', u'medium', u'high']","blue",51,"right","high","True","False",105,2750,NA
"A2YP60DM1HYTH8","Fri Oct 02 2020 10:39:29 GMT-0400 (Cuba Daylight Time)","Fri Oct 02 2020 10:45:45 GMT-0400 (Cuba Daylight Time)","Mozilla/5.0 (Windows NT 10.0; Win64; x64) AppleWebKit/537.36 (KHTML, like Gecko) Chrome/85.0.4183.121 Safari/537.36",57,"[0.9, 0.5, 0.1]","[0.8, 0.4, 0.2]","[u'red', u'black', u'blue']","[u'left', u'middle', u'right']","[0.9, 0.5, 0.1]","[u'low', u'medium', u'high']","blue",51,"right","high","True","False",94,2850,NA
"A2YP60DM1HYTH8","Fri Oct 02 2020 10:39:29 GMT-0400 (Cuba Daylight Time)","Fri Oct 02 2020 10:45:45 GMT-0400 (Cuba Daylight Time)","Mozilla/5.0 (Windows NT 10.0; Win64; x64) AppleWebKit/537.36 (KHTML, like Gecko) Chrome/85.0.4183.121 Safari/537.36",58,"[0.9, 0.5, 0.1]","[0.8, 0.4, 0.2]","[u'red', u'black', u'blue']","[u'left', u'middle', u'right']","[0.9, 0.5, 0.1]","[u'low', u'medium', u'high']","blue",51,"right","high","True","False",253,2950,NA
"A2YP60DM1HYTH8","Fri Oct 02 2020 10:39:29 GMT-0400 (Cuba Daylight Time)","Fri Oct 02 2020 10:45:45 GMT-0400 (Cuba Daylight Time)","Mozilla/5.0 (Windows NT 10.0; Win64; x64) AppleWebKit/537.36 (KHTML, like Gecko) Chrome/85.0.4183.121 Safari/537.36",59,"[0.9, 0.5, 0.1]","[0.8, 0.4, 0.2]","[u'red', u'black', u'blue']","[u'left', u'middle', u'right']","[0.9, 0.5, 0.1]","[u'low', u'medium', u'high']","blue",51,"right","high","True","False",236,3050,NA
"A2YP60DM1HYTH8","Fri Oct 02 2020 10:39:29 GMT-0400 (Cuba Daylight Time)","Fri Oct 02 2020 10:45:45 GMT-0400 (Cuba Daylight Time)","Mozilla/5.0 (Windows NT 10.0; Win64; x64) AppleWebKit/537.36 (KHTML, like Gecko) Chrome/85.0.4183.121 Safari/537.36",60,"[0.9, 0.5, 0.1]","[0.8, 0.4, 0.2]","[u'red', u'black', u'blue']","[u'left', u'middle', u'right']","[0.9, 0.5, 0.1]","[u'low', u'medium', u'high']","blue",51,"right","high","True","False",124,3150,NA
"A2YP60DM1HYTH8","Fri Oct 02 2020 10:39:29 GMT-0400 (Cuba Daylight Time)","Fri Oct 02 2020 10:45:45 GMT-0400 (Cuba Daylight Time)","Mozilla/5.0 (Windows NT 10.0; Win64; x64) AppleWebKit/537.36 (KHTML, like Gecko) Chrome/85.0.4183.121 Safari/537.36",61,"[0.9, 0.5, 0.1]","[0.8, 0.4, 0.2]","[u'red', u'black', u'blue']","[u'left', u'middle', u'right']","[0.9, 0.5, 0.1]","[u'low', u'medium', u'high']","blue",51,"right","high","True","True",73,3250,NA
"A2YP60DM1HYTH8","Fri Oct 02 2020 10:39:29 GMT-0400 (Cuba Daylight Time)","Fri Oct 02 2020 10:45:45 GMT-0400 (Cuba Daylight Time)","Mozilla/5.0 (Windows NT 10.0; Win64; x64) AppleWebKit/537.36 (KHTML, like Gecko) Chrome/85.0.4183.121 Safari/537.36",62,"[0.9, 0.5, 0.1]","[0.8, 0.4, 0.2]","[u'red', u'black', u'blue']","[u'left', u'middle', u'right']","[0.9, 0.5, 0.1]","[u'high', u'low', u'medium']","blue",51,"right","medium","False","False",204,3200,NA
"A2YP60DM1HYTH8","Fri Oct 02 2020 10:39:29 GMT-0400 (Cuba Daylight Time)","Fri Oct 02 2020 10:45:45 GMT-0400 (Cuba Daylight Time)","Mozilla/5.0 (Windows NT 10.0; Win64; x64) AppleWebKit/537.36 (KHTML, like Gecko) Chrome/85.0.4183.121 Safari/537.36",63,"[0.9, 0.5, 0.1]","[0.8, 0.4, 0.2]","[u'red', u'black', u'blue']","[u'left', u'middle', u'right']","[0.9, 0.5, 0.1]","[u'high', u'low', u'medium']","red",49,"left","high","True","False",250,3300,NA
"A2YP60DM1HYTH8","Fri Oct 02 2020 10:39:29 GMT-0400 (Cuba Daylight Time)","Fri Oct 02 2020 10:45:45 GMT-0400 (Cuba Daylight Time)","Mozilla/5.0 (Windows NT 10.0; Win64; x64) AppleWebKit/537.36 (KHTML, like Gecko) Chrome/85.0.4183.121 Safari/537.36",64,"[0.9, 0.5, 0.1]","[0.8, 0.4, 0.2]","[u'red', u'black', u'blue']","[u'left', u'middle', u'right']","[0.9, 0.5, 0.1]","[u'high', u'low', u'medium']","red",49,"left","high","True","False",187,3400,NA
"A2YP60DM1HYTH8","Fri Oct 02 2020 10:39:29 GMT-0400 (Cuba Daylight Time)","Fri Oct 02 2020 10:45:45 GMT-0400 (Cuba Daylight Time)","Mozilla/5.0 (Windows NT 10.0; Win64; x64) AppleWebKit/537.36 (KHTML, like Gecko) Chrome/85.0.4183.121 Safari/537.36",65,"[0.9, 0.5, 0.1]","[0.8, 0.4, 0.2]","[u'red', u'black', u'blue']","[u'left', u'middle', u'right']","[0.9, 0.5, 0.1]","[u'high', u'low', u'medium']","red",49,"left","high","True","False",486,3500,NA
"A2YP60DM1HYTH8","Fri Oct 02 2020 10:39:29 GMT-0400 (Cuba Daylight Time)","Fri Oct 02 2020 10:45:45 GMT-0400 (Cuba Daylight Time)","Mozilla/5.0 (Windows NT 10.0; Win64; x64) AppleWebKit/537.36 (KHTML, like Gecko) Chrome/85.0.4183.121 Safari/537.36",66,"[0.9, 0.5, 0.1]","[0.8, 0.4, 0.2]","[u'red', u'black', u'blue']","[u'left', u'middle', u'right']","[0.9, 0.5, 0.1]","[u'high', u'low', u'medium']","red",49,"left","high","True","False",158,3600,NA
"A2YP60DM1HYTH8","Fri Oct 02 2020 10:39:29 GMT-0400 (Cuba Daylight Time)","Fri Oct 02 2020 10:45:45 GMT-0400 (Cuba Daylight Time)","Mozilla/5.0 (Windows NT 10.0; Win64; x64) AppleWebKit/537.36 (KHTML, like Gecko) Chrome/85.0.4183.121 Safari/537.36",67,"[0.9, 0.5, 0.1]","[0.8, 0.4, 0.2]","[u'red', u'black', u'blue']","[u'left', u'middle', u'right']","[0.9, 0.5, 0.1]","[u'high', u'low', u'medium']","red",49,"left","high","True","False",193,3700,NA
"A2YP60DM1HYTH8","Fri Oct 02 2020 10:39:29 GMT-0400 (Cuba Daylight Time)","Fri Oct 02 2020 10:45:45 GMT-0400 (Cuba Daylight Time)","Mozilla/5.0 (Windows NT 10.0; Win64; x64) AppleWebKit/537.36 (KHTML, like Gecko) Chrome/85.0.4183.121 Safari/537.36",68,"[0.9, 0.5, 0.1]","[0.8, 0.4, 0.2]","[u'red', u'black', u'blue']","[u'left', u'middle', u'right']","[0.9, 0.5, 0.1]","[u'high', u'low', u'medium']","red",49,"left","high","False","False",56,3650,NA
"A2YP60DM1HYTH8","Fri Oct 02 2020 10:39:29 GMT-0400 (Cuba Daylight Time)","Fri Oct 02 2020 10:45:45 GMT-0400 (Cuba Daylight Time)","Mozilla/5.0 (Windows NT 10.0; Win64; x64) AppleWebKit/537.36 (KHTML, like Gecko) Chrome/85.0.4183.121 Safari/537.36",69,"[0.9, 0.5, 0.1]","[0.8, 0.4, 0.2]","[u'red', u'black', u'blue']","[u'left', u'middle', u'right']","[0.9, 0.5, 0.1]","[u'high', u'low', u'medium']","black",50,"middle","low","True","False",104,3750,NA
"A2YP60DM1HYTH8","Fri Oct 02 2020 10:39:29 GMT-0400 (Cuba Daylight Time)","Fri Oct 02 2020 10:45:45 GMT-0400 (Cuba Daylight Time)","Mozilla/5.0 (Windows NT 10.0; Win64; x64) AppleWebKit/537.36 (KHTML, like Gecko) Chrome/85.0.4183.121 Safari/537.36",70,"[0.9, 0.5, 0.1]","[0.8, 0.4, 0.2]","[u'red', u'black', u'blue']","[u'left', u'middle', u'right']","[0.9, 0.5, 0.1]","[u'high', u'low', u'medium']","black",50,"middle","low","False","False",192,3700,NA
"A2YP60DM1HYTH8","Fri Oct 02 2020 10:39:29 GMT-0400 (Cuba Daylight Time)","Fri Oct 02 2020 10:45:45 GMT-0400 (Cuba Daylight Time)","Mozilla/5.0 (Windows NT 10.0; Win64; x64) AppleWebKit/537.36 (KHTML, like Gecko) Chrome/85.0.4183.121 Safari/537.36",71,"[0.9, 0.5, 0.1]","[0.8, 0.4, 0.2]","[u'red', u'black', u'blue']","[u'left', u'middle', u'right']","[0.9, 0.5, 0.1]","[u'high', u'low', u'medium']","blue",51,"right","medium","False","False",69,3650,NA
"A2YP60DM1HYTH8","Fri Oct 02 2020 10:39:29 GMT-0400 (Cuba Daylight Time)","Fri Oct 02 2020 10:45:45 GMT-0400 (Cuba Daylight Time)","Mozilla/5.0 (Windows NT 10.0; Win64; x64) AppleWebKit/537.36 (KHTML, like Gecko) Chrome/85.0.4183.121 Safari/537.36",72,"[0.9, 0.5, 0.1]","[0.8, 0.4, 0.2]","[u'red', u'black', u'blue']","[u'left', u'middle', u'right']","[0.9, 0.5, 0.1]","[u'high', u'low', u'medium']","red",49,"left","high","False","False",230,3600,NA
"A2YP60DM1HYTH8","Fri Oct 02 2020 10:39:29 GMT-0400 (Cuba Daylight Time)","Fri Oct 02 2020 10:45:45 GMT-0400 (Cuba Daylight Time)","Mozilla/5.0 (Windows NT 10.0; Win64; x64) AppleWebKit/537.36 (KHTML, like Gecko) Chrome/85.0.4183.121 Safari/537.36",73,"[0.9, 0.5, 0.1]","[0.8, 0.4, 0.2]","[u'red', u'black', u'blue']","[u'left', u'middle', u'right']","[0.9, 0.5, 0.1]","[u'high', u'low', u'medium']","blue",51,"right","medium","False","False",201,3550,NA
"A2YP60DM1HYTH8","Fri Oct 02 2020 10:39:29 GMT-0400 (Cuba Daylight Time)","Fri Oct 02 2020 10:45:45 GMT-0400 (Cuba Daylight Time)","Mozilla/5.0 (Windows NT 10.0; Win64; x64) AppleWebKit/537.36 (KHTML, like Gecko) Chrome/85.0.4183.121 Safari/537.36",74,"[0.9, 0.5, 0.1]","[0.8, 0.4, 0.2]","[u'red', u'black', u'blue']","[u'left', u'middle', u'right']","[0.9, 0.5, 0.1]","[u'high', u'low', u'medium']","black",50,"middle","low","False","False",147,3500,NA
"A2YP60DM1HYTH8","Fri Oct 02 2020 10:39:29 GMT-0400 (Cuba Daylight Time)","Fri Oct 02 2020 10:45:45 GMT-0400 (Cuba Daylight Time)","Mozilla/5.0 (Windows NT 10.0; Win64; x64) AppleWebKit/537.36 (KHTML, like Gecko) Chrome/85.0.4183.121 Safari/537.36",75,"[0.9, 0.5, 0.1]","[0.8, 0.4, 0.2]","[u'red', u'black', u'blue']","[u'left', u'middle', u'right']","[0.9, 0.5, 0.1]","[u'high', u'low', u'medium']","red",49,"left","high","True","False",141,3600,NA
"A2YP60DM1HYTH8","Fri Oct 02 2020 10:39:29 GMT-0400 (Cuba Daylight Time)","Fri Oct 02 2020 10:45:45 GMT-0400 (Cuba Daylight Time)","Mozilla/5.0 (Windows NT 10.0; Win64; x64) AppleWebKit/537.36 (KHTML, like Gecko) Chrome/85.0.4183.121 Safari/537.36",76,"[0.9, 0.5, 0.1]","[0.8, 0.4, 0.2]","[u'red', u'black', u'blue']","[u'left', u'middle', u'right']","[0.9, 0.5, 0.1]","[u'high', u'low', u'medium']","red",49,"left","high","True","False",186,3700,NA
"A2YP60DM1HYTH8","Fri Oct 02 2020 10:39:29 GMT-0400 (Cuba Daylight Time)","Fri Oct 02 2020 10:45:45 GMT-0400 (Cuba Daylight Time)","Mozilla/5.0 (Windows NT 10.0; Win64; x64) AppleWebKit/537.36 (KHTML, like Gecko) Chrome/85.0.4183.121 Safari/537.36",77,"[0.9, 0.5, 0.1]","[0.8, 0.4, 0.2]","[u'red', u'black', u'blue']","[u'left', u'middle', u'right']","[0.9, 0.5, 0.1]","[u'high', u'low', u'medium']","red",49,"left","high","True","False",146,3800,NA
"A2YP60DM1HYTH8","Fri Oct 02 2020 10:39:29 GMT-0400 (Cuba Daylight Time)","Fri Oct 02 2020 10:45:45 GMT-0400 (Cuba Daylight Time)","Mozilla/5.0 (Windows NT 10.0; Win64; x64) AppleWebKit/537.36 (KHTML, like Gecko) Chrome/85.0.4183.121 Safari/537.36",78,"[0.9, 0.5, 0.1]","[0.8, 0.4, 0.2]","[u'red', u'black', u'blue']","[u'left', u'middle', u'right']","[0.9, 0.5, 0.1]","[u'high', u'low', u'medium']","red",49,"left","high","True","False",93,3900,NA
"A2YP60DM1HYTH8","Fri Oct 02 2020 10:39:29 GMT-0400 (Cuba Daylight Time)","Fri Oct 02 2020 10:45:45 GMT-0400 (Cuba Daylight Time)","Mozilla/5.0 (Windows NT 10.0; Win64; x64) AppleWebKit/537.36 (KHTML, like Gecko) Chrome/85.0.4183.121 Safari/537.36",79,"[0.9, 0.5, 0.1]","[0.8, 0.4, 0.2]","[u'red', u'black', u'blue']","[u'left', u'middle', u'right']","[0.9, 0.5, 0.1]","[u'high', u'low', u'medium']","red",49,"left","high","True","False",238,4000,NA
"A2YP60DM1HYTH8","Fri Oct 02 2020 10:39:29 GMT-0400 (Cuba Daylight Time)","Fri Oct 02 2020 10:45:45 GMT-0400 (Cuba Daylight Time)","Mozilla/5.0 (Windows NT 10.0; Win64; x64) AppleWebKit/537.36 (KHTML, like Gecko) Chrome/85.0.4183.121 Safari/537.36",80,"[0.9, 0.5, 0.1]","[0.8, 0.4, 0.2]","[u'red', u'black', u'blue']","[u'left', u'middle', u'right']","[0.9, 0.5, 0.1]","[u'high', u'low', u'medium']","red",49,"left","high","True","False",125,4100,NA
"A2YP60DM1HYTH8","Fri Oct 02 2020 10:39:29 GMT-0400 (Cuba Daylight Time)","Fri Oct 02 2020 10:45:45 GMT-0400 (Cuba Daylight Time)","Mozilla/5.0 (Windows NT 10.0; Win64; x64) AppleWebKit/537.36 (KHTML, like Gecko) Chrome/85.0.4183.121 Safari/537.36",81,"[0.9, 0.5, 0.1]","[0.8, 0.4, 0.2]","[u'red', u'black', u'blue']","[u'left', u'middle', u'right']","[0.8, 0.4, 0.2]","[u'low', u'medium', u'high']","red",49,"left","low","False","False",453,4050,NA
"A2YP60DM1HYTH8","Fri Oct 02 2020 10:39:29 GMT-0400 (Cuba Daylight Time)","Fri Oct 02 2020 10:45:45 GMT-0400 (Cuba Daylight Time)","Mozilla/5.0 (Windows NT 10.0; Win64; x64) AppleWebKit/537.36 (KHTML, like Gecko) Chrome/85.0.4183.121 Safari/537.36",82,"[0.9, 0.5, 0.1]","[0.8, 0.4, 0.2]","[u'red', u'black', u'blue']","[u'left', u'middle', u'right']","[0.8, 0.4, 0.2]","[u'low', u'medium', u'high']","blue",51,"right","high","False","False",3,4000,NA
"A2YP60DM1HYTH8","Fri Oct 02 2020 10:39:29 GMT-0400 (Cuba Daylight Time)","Fri Oct 02 2020 10:45:45 GMT-0400 (Cuba Daylight Time)","Mozilla/5.0 (Windows NT 10.0; Win64; x64) AppleWebKit/537.36 (KHTML, like Gecko) Chrome/85.0.4183.121 Safari/537.36",83,"[0.9, 0.5, 0.1]","[0.8, 0.4, 0.2]","[u'red', u'black', u'blue']","[u'left', u'middle', u'right']","[0.8, 0.4, 0.2]","[u'low', u'medium', u'high']","black",50,"middle","medium","True","False",352,4100,NA
"A2YP60DM1HYTH8","Fri Oct 02 2020 10:39:29 GMT-0400 (Cuba Daylight Time)","Fri Oct 02 2020 10:45:45 GMT-0400 (Cuba Daylight Time)","Mozilla/5.0 (Windows NT 10.0; Win64; x64) AppleWebKit/537.36 (KHTML, like Gecko) Chrome/85.0.4183.121 Safari/537.36",84,"[0.9, 0.5, 0.1]","[0.8, 0.4, 0.2]","[u'red', u'black', u'blue']","[u'left', u'middle', u'right']","[0.8, 0.4, 0.2]","[u'low', u'medium', u'high']","black",50,"middle","medium","False","False",243,4050,NA
"A2YP60DM1HYTH8","Fri Oct 02 2020 10:39:29 GMT-0400 (Cuba Daylight Time)","Fri Oct 02 2020 10:45:45 GMT-0400 (Cuba Daylight Time)","Mozilla/5.0 (Windows NT 10.0; Win64; x64) AppleWebKit/537.36 (KHTML, like Gecko) Chrome/85.0.4183.121 Safari/537.36",85,"[0.9, 0.5, 0.1]","[0.8, 0.4, 0.2]","[u'red', u'black', u'blue']","[u'left', u'middle', u'right']","[0.8, 0.4, 0.2]","[u'low', u'medium', u'high']","red",49,"left","low","False","False",231,4000,NA
"A2YP60DM1HYTH8","Fri Oct 02 2020 10:39:29 GMT-0400 (Cuba Daylight Time)","Fri Oct 02 2020 10:45:45 GMT-0400 (Cuba Daylight Time)","Mozilla/5.0 (Windows NT 10.0; Win64; x64) AppleWebKit/537.36 (KHTML, like Gecko) Chrome/85.0.4183.121 Safari/537.36",86,"[0.9, 0.5, 0.1]","[0.8, 0.4, 0.2]","[u'red', u'black', u'blue']","[u'left', u'middle', u'right']","[0.8, 0.4, 0.2]","[u'low', u'medium', u'high']","blue",51,"right","high","True","False",181,4100,NA
"A2YP60DM1HYTH8","Fri Oct 02 2020 10:39:29 GMT-0400 (Cuba Daylight Time)","Fri Oct 02 2020 10:45:45 GMT-0400 (Cuba Daylight Time)","Mozilla/5.0 (Windows NT 10.0; Win64; x64) AppleWebKit/537.36 (KHTML, like Gecko) Chrome/85.0.4183.121 Safari/537.36",87,"[0.9, 0.5, 0.1]","[0.8, 0.4, 0.2]","[u'red', u'black', u'blue']","[u'left', u'middle', u'right']","[0.8, 0.4, 0.2]","[u'low', u'medium', u'high']","blue",51,"right","high","True","False",16,4200,NA
"A2YP60DM1HYTH8","Fri Oct 02 2020 10:39:29 GMT-0400 (Cuba Daylight Time)","Fri Oct 02 2020 10:45:45 GMT-0400 (Cuba Daylight Time)","Mozilla/5.0 (Windows NT 10.0; Win64; x64) AppleWebKit/537.36 (KHTML, like Gecko) Chrome/85.0.4183.121 Safari/537.36",88,"[0.9, 0.5, 0.1]","[0.8, 0.4, 0.2]","[u'red', u'black', u'blue']","[u'left', u'middle', u'right']","[0.8, 0.4, 0.2]","[u'low', u'medium', u'high']","blue",51,"right","high","True","False",401,4300,NA
"A2YP60DM1HYTH8","Fri Oct 02 2020 10:39:29 GMT-0400 (Cuba Daylight Time)","Fri Oct 02 2020 10:45:45 GMT-0400 (Cuba Daylight Time)","Mozilla/5.0 (Windows NT 10.0; Win64; x64) AppleWebKit/537.36 (KHTML, like Gecko) Chrome/85.0.4183.121 Safari/537.36",89,"[0.9, 0.5, 0.1]","[0.8, 0.4, 0.2]","[u'red', u'black', u'blue']","[u'left', u'middle', u'right']","[0.8, 0.4, 0.2]","[u'low', u'medium', u'high']","blue",51,"right","high","True","False",350,4400,NA
"A2YP60DM1HYTH8","Fri Oct 02 2020 10:39:29 GMT-0400 (Cuba Daylight Time)","Fri Oct 02 2020 10:45:45 GMT-0400 (Cuba Daylight Time)","Mozilla/5.0 (Windows NT 10.0; Win64; x64) AppleWebKit/537.36 (KHTML, like Gecko) Chrome/85.0.4183.121 Safari/537.36",90,"[0.9, 0.5, 0.1]","[0.8, 0.4, 0.2]","[u'red', u'black', u'blue']","[u'left', u'middle', u'right']","[0.8, 0.4, 0.2]","[u'low', u'medium', u'high']","blue",51,"right","high","False","False",89,4350,NA
"A2YP60DM1HYTH8","Fri Oct 02 2020 10:39:29 GMT-0400 (Cuba Daylight Time)","Fri Oct 02 2020 10:45:45 GMT-0400 (Cuba Daylight Time)","Mozilla/5.0 (Windows NT 10.0; Win64; x64) AppleWebKit/537.36 (KHTML, like Gecko) Chrome/85.0.4183.121 Safari/537.36",91,"[0.9, 0.5, 0.1]","[0.8, 0.4, 0.2]","[u'red', u'black', u'blue']","[u'left', u'middle', u'right']","[0.8, 0.4, 0.2]","[u'low', u'medium', u'high']","red",49,"left","low","False","False",84,4300,NA
"A2YP60DM1HYTH8","Fri Oct 02 2020 10:39:29 GMT-0400 (Cuba Daylight Time)","Fri Oct 02 2020 10:45:45 GMT-0400 (Cuba Daylight Time)","Mozilla/5.0 (Windows NT 10.0; Win64; x64) AppleWebKit/537.36 (KHTML, like Gecko) Chrome/85.0.4183.121 Safari/537.36",92,"[0.9, 0.5, 0.1]","[0.8, 0.4, 0.2]","[u'red', u'black', u'blue']","[u'left', u'middle', u'right']","[0.8, 0.4, 0.2]","[u'low', u'medium', u'high']","black",50,"middle","medium","False","False",247,4250,NA
"A2YP60DM1HYTH8","Fri Oct 02 2020 10:39:29 GMT-0400 (Cuba Daylight Time)","Fri Oct 02 2020 10:45:45 GMT-0400 (Cuba Daylight Time)","Mozilla/5.0 (Windows NT 10.0; Win64; x64) AppleWebKit/537.36 (KHTML, like Gecko) Chrome/85.0.4183.121 Safari/537.36",93,"[0.9, 0.5, 0.1]","[0.8, 0.4, 0.2]","[u'red', u'black', u'blue']","[u'left', u'middle', u'right']","[0.8, 0.4, 0.2]","[u'low', u'medium', u'high']","blue",51,"right","high","True","False",350,4350,NA
"A2YP60DM1HYTH8","Fri Oct 02 2020 10:39:29 GMT-0400 (Cuba Daylight Time)","Fri Oct 02 2020 10:45:45 GMT-0400 (Cuba Daylight Time)","Mozilla/5.0 (Windows NT 10.0; Win64; x64) AppleWebKit/537.36 (KHTML, like Gecko) Chrome/85.0.4183.121 Safari/537.36",94,"[0.9, 0.5, 0.1]","[0.8, 0.4, 0.2]","[u'red', u'black', u'blue']","[u'left', u'middle', u'right']","[0.8, 0.4, 0.2]","[u'low', u'medium', u'high']","blue",51,"right","high","True","False",345,4450,NA
"A2YP60DM1HYTH8","Fri Oct 02 2020 10:39:29 GMT-0400 (Cuba Daylight Time)","Fri Oct 02 2020 10:45:45 GMT-0400 (Cuba Daylight Time)","Mozilla/5.0 (Windows NT 10.0; Win64; x64) AppleWebKit/537.36 (KHTML, like Gecko) Chrome/85.0.4183.121 Safari/537.36",95,"[0.9, 0.5, 0.1]","[0.8, 0.4, 0.2]","[u'red', u'black', u'blue']","[u'left', u'middle', u'right']","[0.8, 0.4, 0.2]","[u'low', u'medium', u'high']","blue",51,"right","high","True","False",472,4550,NA
"A2YP60DM1HYTH8","Fri Oct 02 2020 10:39:29 GMT-0400 (Cuba Daylight Time)","Fri Oct 02 2020 10:45:45 GMT-0400 (Cuba Daylight Time)","Mozilla/5.0 (Windows NT 10.0; Win64; x64) AppleWebKit/537.36 (KHTML, like Gecko) Chrome/85.0.4183.121 Safari/537.36",96,"[0.9, 0.5, 0.1]","[0.8, 0.4, 0.2]","[u'red', u'black', u'blue']","[u'left', u'middle', u'right']","[0.8, 0.4, 0.2]","[u'low', u'medium', u'high']","blue",51,"right","high","True","False",316,4650,NA
"A2YP60DM1HYTH8","Fri Oct 02 2020 10:39:29 GMT-0400 (Cuba Daylight Time)","Fri Oct 02 2020 10:45:45 GMT-0400 (Cuba Daylight Time)","Mozilla/5.0 (Windows NT 10.0; Win64; x64) AppleWebKit/537.36 (KHTML, like Gecko) Chrome/85.0.4183.121 Safari/537.36",97,"[0.9, 0.5, 0.1]","[0.8, 0.4, 0.2]","[u'red', u'black', u'blue']","[u'left', u'middle', u'right']","[0.8, 0.4, 0.2]","[u'low', u'medium', u'high']","blue",51,"right","high","True","False",135,4750,NA
"A2YP60DM1HYTH8","Fri Oct 02 2020 10:39:29 GMT-0400 (Cuba Daylight Time)","Fri Oct 02 2020 10:45:45 GMT-0400 (Cuba Daylight Time)","Mozilla/5.0 (Windows NT 10.0; Win64; x64) AppleWebKit/537.36 (KHTML, like Gecko) Chrome/85.0.4183.121 Safari/537.36",98,"[0.9, 0.5, 0.1]","[0.8, 0.4, 0.2]","[u'red', u'black', u'blue']","[u'left', u'middle', u'right']","[0.8, 0.4, 0.2]","[u'low', u'medium', u'high']","blue",51,"right","high","True","False",328,4850,NA
"A2YP60DM1HYTH8","Fri Oct 02 2020 10:39:29 GMT-0400 (Cuba Daylight Time)","Fri Oct 02 2020 10:45:45 GMT-0400 (Cuba Daylight Time)","Mozilla/5.0 (Windows NT 10.0; Win64; x64) AppleWebKit/537.36 (KHTML, like Gecko) Chrome/85.0.4183.121 Safari/537.36",99,"[0.9, 0.5, 0.1]","[0.8, 0.4, 0.2]","[u'red', u'black', u'blue']","[u'left', u'middle', u'right']","[0.8, 0.4, 0.2]","[u'low', u'medium', u'high']","blue",51,"right","high","True","False",306,4950,NA
"A2YP60DM1HYTH8","Fri Oct 02 2020 10:39:29 GMT-0400 (Cuba Daylight Time)","Fri Oct 02 2020 10:45:45 GMT-0400 (Cuba Daylight Time)","Mozilla/5.0 (Windows NT 10.0; Win64; x64) AppleWebKit/537.36 (KHTML, like Gecko) Chrome/85.0.4183.121 Safari/537.36",100,"[0.9, 0.5, 0.1]","[0.8, 0.4, 0.2]","[u'red', u'black', u'blue']","[u'left', u'middle', u'right']","[0.8, 0.4, 0.2]","[u'low', u'medium', u'high']","blue",51,"right","high","True","False",266,5050,NA
"A2YP60DM1HYTH8","Fri Oct 02 2020 10:39:29 GMT-0400 (Cuba Daylight Time)","Fri Oct 02 2020 10:45:45 GMT-0400 (Cuba Daylight Time)","Mozilla/5.0 (Windows NT 10.0; Win64; x64) AppleWebKit/537.36 (KHTML, like Gecko) Chrome/85.0.4183.121 Safari/537.36",101,"[0.9, 0.5, 0.1]","[0.8, 0.4, 0.2]","[u'red', u'black', u'blue']","[u'left', u'middle', u'right']","[0.8, 0.4, 0.2]","[u'low', u'medium', u'high']","blue",51,"right","high","True","True",214,5150,NA
"A2YP60DM1HYTH8","Fri Oct 02 2020 10:39:29 GMT-0400 (Cuba Daylight Time)","Fri Oct 02 2020 10:45:45 GMT-0400 (Cuba Daylight Time)","Mozilla/5.0 (Windows NT 10.0; Win64; x64) AppleWebKit/537.36 (KHTML, like Gecko) Chrome/85.0.4183.121 Safari/537.36",102,"[0.9, 0.5, 0.1]","[0.8, 0.4, 0.2]","[u'red', u'black', u'blue']","[u'left', u'middle', u'right']","[0.8, 0.4, 0.2]","[u'medium', u'high', u'low']","blue",51,"right","low","False","False",170,5100,NA
"A2YP60DM1HYTH8","Fri Oct 02 2020 10:39:29 GMT-0400 (Cuba Daylight Time)","Fri Oct 02 2020 10:45:45 GMT-0400 (Cuba Daylight Time)","Mozilla/5.0 (Windows NT 10.0; Win64; x64) AppleWebKit/537.36 (KHTML, like Gecko) Chrome/85.0.4183.121 Safari/537.36",103,"[0.9, 0.5, 0.1]","[0.8, 0.4, 0.2]","[u'red', u'black', u'blue']","[u'left', u'middle', u'right']","[0.8, 0.4, 0.2]","[u'medium', u'high', u'low']","red",49,"left","medium","True","False",99,5200,NA
"A2YP60DM1HYTH8","Fri Oct 02 2020 10:39:29 GMT-0400 (Cuba Daylight Time)","Fri Oct 02 2020 10:45:45 GMT-0400 (Cuba Daylight Time)","Mozilla/5.0 (Windows NT 10.0; Win64; x64) AppleWebKit/537.36 (KHTML, like Gecko) Chrome/85.0.4183.121 Safari/537.36",104,"[0.9, 0.5, 0.1]","[0.8, 0.4, 0.2]","[u'red', u'black', u'blue']","[u'left', u'middle', u'right']","[0.8, 0.4, 0.2]","[u'medium', u'high', u'low']","red",49,"left","medium","True","False",237,5300,NA
"A2YP60DM1HYTH8","Fri Oct 02 2020 10:39:29 GMT-0400 (Cuba Daylight Time)","Fri Oct 02 2020 10:45:45 GMT-0400 (Cuba Daylight Time)","Mozilla/5.0 (Windows NT 10.0; Win64; x64) AppleWebKit/537.36 (KHTML, like Gecko) Chrome/85.0.4183.121 Safari/537.36",105,"[0.9, 0.5, 0.1]","[0.8, 0.4, 0.2]","[u'red', u'black', u'blue']","[u'left', u'middle', u'right']","[0.8, 0.4, 0.2]","[u'medium', u'high', u'low']","red",49,"left","medium","True","False",213,5400,NA
"A2YP60DM1HYTH8","Fri Oct 02 2020 10:39:29 GMT-0400 (Cuba Daylight Time)","Fri Oct 02 2020 10:45:45 GMT-0400 (Cuba Daylight Time)","Mozilla/5.0 (Windows NT 10.0; Win64; x64) AppleWebKit/537.36 (KHTML, like Gecko) Chrome/85.0.4183.121 Safari/537.36",106,"[0.9, 0.5, 0.1]","[0.8, 0.4, 0.2]","[u'red', u'black', u'blue']","[u'left', u'middle', u'right']","[0.8, 0.4, 0.2]","[u'medium', u'high', u'low']","red",49,"left","medium","True","False",210,5500,NA
"A2YP60DM1HYTH8","Fri Oct 02 2020 10:39:29 GMT-0400 (Cuba Daylight Time)","Fri Oct 02 2020 10:45:45 GMT-0400 (Cuba Daylight Time)","Mozilla/5.0 (Windows NT 10.0; Win64; x64) AppleWebKit/537.36 (KHTML, like Gecko) Chrome/85.0.4183.121 Safari/537.36",107,"[0.9, 0.5, 0.1]","[0.8, 0.4, 0.2]","[u'red', u'black', u'blue']","[u'left', u'middle', u'right']","[0.8, 0.4, 0.2]","[u'medium', u'high', u'low']","red",49,"left","medium","True","False",70,5600,NA
"A2YP60DM1HYTH8","Fri Oct 02 2020 10:39:29 GMT-0400 (Cuba Daylight Time)","Fri Oct 02 2020 10:45:45 GMT-0400 (Cuba Daylight Time)","Mozilla/5.0 (Windows NT 10.0; Win64; x64) AppleWebKit/537.36 (KHTML, like Gecko) Chrome/85.0.4183.121 Safari/537.36",108,"[0.9, 0.5, 0.1]","[0.8, 0.4, 0.2]","[u'red', u'black', u'blue']","[u'left', u'middle', u'right']","[0.8, 0.4, 0.2]","[u'medium', u'high', u'low']","red",49,"left","medium","False","False",200,5550,NA
"A2YP60DM1HYTH8","Fri Oct 02 2020 10:39:29 GMT-0400 (Cuba Daylight Time)","Fri Oct 02 2020 10:45:45 GMT-0400 (Cuba Daylight Time)","Mozilla/5.0 (Windows NT 10.0; Win64; x64) AppleWebKit/537.36 (KHTML, like Gecko) Chrome/85.0.4183.121 Safari/537.36",109,"[0.9, 0.5, 0.1]","[0.8, 0.4, 0.2]","[u'red', u'black', u'blue']","[u'left', u'middle', u'right']","[0.8, 0.4, 0.2]","[u'medium', u'high', u'low']","black",50,"middle","high","True","False",427,5650,NA
"A2YP60DM1HYTH8","Fri Oct 02 2020 10:39:29 GMT-0400 (Cuba Daylight Time)","Fri Oct 02 2020 10:45:45 GMT-0400 (Cuba Daylight Time)","Mozilla/5.0 (Windows NT 10.0; Win64; x64) AppleWebKit/537.36 (KHTML, like Gecko) Chrome/85.0.4183.121 Safari/537.36",110,"[0.9, 0.5, 0.1]","[0.8, 0.4, 0.2]","[u'red', u'black', u'blue']","[u'left', u'middle', u'right']","[0.8, 0.4, 0.2]","[u'medium', u'high', u'low']","black",50,"middle","high","True","False",147,5750,NA
"A2YP60DM1HYTH8","Fri Oct 02 2020 10:39:29 GMT-0400 (Cuba Daylight Time)","Fri Oct 02 2020 10:45:45 GMT-0400 (Cuba Daylight Time)","Mozilla/5.0 (Windows NT 10.0; Win64; x64) AppleWebKit/537.36 (KHTML, like Gecko) Chrome/85.0.4183.121 Safari/537.36",111,"[0.9, 0.5, 0.1]","[0.8, 0.4, 0.2]","[u'red', u'black', u'blue']","[u'left', u'middle', u'right']","[0.8, 0.4, 0.2]","[u'medium', u'high', u'low']","black",50,"middle","high","True","False",197,5850,NA
"A2YP60DM1HYTH8","Fri Oct 02 2020 10:39:29 GMT-0400 (Cuba Daylight Time)","Fri Oct 02 2020 10:45:45 GMT-0400 (Cuba Daylight Time)","Mozilla/5.0 (Windows NT 10.0; Win64; x64) AppleWebKit/537.36 (KHTML, like Gecko) Chrome/85.0.4183.121 Safari/537.36",112,"[0.9, 0.5, 0.1]","[0.8, 0.4, 0.2]","[u'red', u'black', u'blue']","[u'left', u'middle', u'right']","[0.8, 0.4, 0.2]","[u'medium', u'high', u'low']","black",50,"middle","high","True","False",90,5950,NA
"A2YP60DM1HYTH8","Fri Oct 02 2020 10:39:29 GMT-0400 (Cuba Daylight Time)","Fri Oct 02 2020 10:45:45 GMT-0400 (Cuba Daylight Time)","Mozilla/5.0 (Windows NT 10.0; Win64; x64) AppleWebKit/537.36 (KHTML, like Gecko) Chrome/85.0.4183.121 Safari/537.36",113,"[0.9, 0.5, 0.1]","[0.8, 0.4, 0.2]","[u'red', u'black', u'blue']","[u'left', u'middle', u'right']","[0.8, 0.4, 0.2]","[u'medium', u'high', u'low']","black",50,"middle","high","True","False",170,6050,NA
"A2YP60DM1HYTH8","Fri Oct 02 2020 10:39:29 GMT-0400 (Cuba Daylight Time)","Fri Oct 02 2020 10:45:45 GMT-0400 (Cuba Daylight Time)","Mozilla/5.0 (Windows NT 10.0; Win64; x64) AppleWebKit/537.36 (KHTML, like Gecko) Chrome/85.0.4183.121 Safari/537.36",114,"[0.9, 0.5, 0.1]","[0.8, 0.4, 0.2]","[u'red', u'black', u'blue']","[u'left', u'middle', u'right']","[0.8, 0.4, 0.2]","[u'medium', u'high', u'low']","black",50,"middle","high","False","False",174,6000,NA
"A2YP60DM1HYTH8","Fri Oct 02 2020 10:39:29 GMT-0400 (Cuba Daylight Time)","Fri Oct 02 2020 10:45:45 GMT-0400 (Cuba Daylight Time)","Mozilla/5.0 (Windows NT 10.0; Win64; x64) AppleWebKit/537.36 (KHTML, like Gecko) Chrome/85.0.4183.121 Safari/537.36",115,"[0.9, 0.5, 0.1]","[0.8, 0.4, 0.2]","[u'red', u'black', u'blue']","[u'left', u'middle', u'right']","[0.8, 0.4, 0.2]","[u'medium', u'high', u'low']","blue",51,"right","low","True","False",249,6100,NA
"A2YP60DM1HYTH8","Fri Oct 02 2020 10:39:29 GMT-0400 (Cuba Daylight Time)","Fri Oct 02 2020 10:45:45 GMT-0400 (Cuba Daylight Time)","Mozilla/5.0 (Windows NT 10.0; Win64; x64) AppleWebKit/537.36 (KHTML, like Gecko) Chrome/85.0.4183.121 Safari/537.36",116,"[0.9, 0.5, 0.1]","[0.8, 0.4, 0.2]","[u'red', u'black', u'blue']","[u'left', u'middle', u'right']","[0.8, 0.4, 0.2]","[u'medium', u'high', u'low']","blue",51,"right","low","False","False",216,6050,NA
"A2YP60DM1HYTH8","Fri Oct 02 2020 10:39:29 GMT-0400 (Cuba Daylight Time)","Fri Oct 02 2020 10:45:45 GMT-0400 (Cuba Daylight Time)","Mozilla/5.0 (Windows NT 10.0; Win64; x64) AppleWebKit/537.36 (KHTML, like Gecko) Chrome/85.0.4183.121 Safari/537.36",117,"[0.9, 0.5, 0.1]","[0.8, 0.4, 0.2]","[u'red', u'black', u'blue']","[u'left', u'middle', u'right']","[0.8, 0.4, 0.2]","[u'medium', u'high', u'low']","red",49,"left","medium","False","False",225,6000,NA
"A2YP60DM1HYTH8","Fri Oct 02 2020 10:39:29 GMT-0400 (Cuba Daylight Time)","Fri Oct 02 2020 10:45:45 GMT-0400 (Cuba Daylight Time)","Mozilla/5.0 (Windows NT 10.0; Win64; x64) AppleWebKit/537.36 (KHTML, like Gecko) Chrome/85.0.4183.121 Safari/537.36",118,"[0.9, 0.5, 0.1]","[0.8, 0.4, 0.2]","[u'red', u'black', u'blue']","[u'left', u'middle', u'right']","[0.8, 0.4, 0.2]","[u'medium', u'high', u'low']","black",50,"middle","high","True","False",209,6100,NA
"A2YP60DM1HYTH8","Fri Oct 02 2020 10:39:29 GMT-0400 (Cuba Daylight Time)","Fri Oct 02 2020 10:45:45 GMT-0400 (Cuba Daylight Time)","Mozilla/5.0 (Windows NT 10.0; Win64; x64) AppleWebKit/537.36 (KHTML, like Gecko) Chrome/85.0.4183.121 Safari/537.36",119,"[0.9, 0.5, 0.1]","[0.8, 0.4, 0.2]","[u'red', u'black', u'blue']","[u'left', u'middle', u'right']","[0.8, 0.4, 0.2]","[u'medium', u'high', u'low']","black",50,"middle","high","True","False",200,6200,NA
"A2YP60DM1HYTH8","Fri Oct 02 2020 10:39:29 GMT-0400 (Cuba Daylight Time)","Fri Oct 02 2020 10:45:45 GMT-0400 (Cuba Daylight Time)","Mozilla/5.0 (Windows NT 10.0; Win64; x64) AppleWebKit/537.36 (KHTML, like Gecko) Chrome/85.0.4183.121 Safari/537.36",120,"[0.9, 0.5, 0.1]","[0.8, 0.4, 0.2]","[u'red', u'black', u'blue']","[u'left', u'middle', u'right']","[0.8, 0.4, 0.2]","[u'medium', u'high', u'low']","black",50,"middle","high","False","False",404,6150,NA
"A2YP60DM1HYTH8","Fri Oct 02 2020 10:39:29 GMT-0400 (Cuba Daylight Time)","Fri Oct 02 2020 10:45:45 GMT-0400 (Cuba Daylight Time)","Mozilla/5.0 (Windows NT 10.0; Win64; x64) AppleWebKit/537.36 (KHTML, like Gecko) Chrome/85.0.4183.121 Safari/537.36",121,"[0.9, 0.5, 0.1]","[0.8, 0.4, 0.2]","[u'red', u'black', u'blue']","[u'left', u'middle', u'right']","[0.8, 0.4, 0.2]","[u'high', u'medium', u'low']","red",49,"left","high","True","False",591,6250,NA
"A2YP60DM1HYTH8","Fri Oct 02 2020 10:39:29 GMT-0400 (Cuba Daylight Time)","Fri Oct 02 2020 10:45:45 GMT-0400 (Cuba Daylight Time)","Mozilla/5.0 (Windows NT 10.0; Win64; x64) AppleWebKit/537.36 (KHTML, like Gecko) Chrome/85.0.4183.121 Safari/537.36",122,"[0.9, 0.5, 0.1]","[0.8, 0.4, 0.2]","[u'red', u'black', u'blue']","[u'left', u'middle', u'right']","[0.8, 0.4, 0.2]","[u'high', u'medium', u'low']","red",49,"left","high","True","False",24,6350,NA
"A2YP60DM1HYTH8","Fri Oct 02 2020 10:39:29 GMT-0400 (Cuba Daylight Time)","Fri Oct 02 2020 10:45:45 GMT-0400 (Cuba Daylight Time)","Mozilla/5.0 (Windows NT 10.0; Win64; x64) AppleWebKit/537.36 (KHTML, like Gecko) Chrome/85.0.4183.121 Safari/537.36",123,"[0.9, 0.5, 0.1]","[0.8, 0.4, 0.2]","[u'red', u'black', u'blue']","[u'left', u'middle', u'right']","[0.8, 0.4, 0.2]","[u'high', u'medium', u'low']","red",49,"left","high","True","False",234,6450,NA
"A2YP60DM1HYTH8","Fri Oct 02 2020 10:39:29 GMT-0400 (Cuba Daylight Time)","Fri Oct 02 2020 10:45:45 GMT-0400 (Cuba Daylight Time)","Mozilla/5.0 (Windows NT 10.0; Win64; x64) AppleWebKit/537.36 (KHTML, like Gecko) Chrome/85.0.4183.121 Safari/537.36",124,"[0.9, 0.5, 0.1]","[0.8, 0.4, 0.2]","[u'red', u'black', u'blue']","[u'left', u'middle', u'right']","[0.8, 0.4, 0.2]","[u'high', u'medium', u'low']","red",49,"left","high","True","False",208,6550,NA
"A2YP60DM1HYTH8","Fri Oct 02 2020 10:39:29 GMT-0400 (Cuba Daylight Time)","Fri Oct 02 2020 10:45:45 GMT-0400 (Cuba Daylight Time)","Mozilla/5.0 (Windows NT 10.0; Win64; x64) AppleWebKit/537.36 (KHTML, like Gecko) Chrome/85.0.4183.121 Safari/537.36",125,"[0.9, 0.5, 0.1]","[0.8, 0.4, 0.2]","[u'red', u'black', u'blue']","[u'left', u'middle', u'right']","[0.8, 0.4, 0.2]","[u'high', u'medium', u'low']","red",49,"left","high","True","False",308,6650,NA
"A2YP60DM1HYTH8","Fri Oct 02 2020 10:39:29 GMT-0400 (Cuba Daylight Time)","Fri Oct 02 2020 10:45:45 GMT-0400 (Cuba Daylight Time)","Mozilla/5.0 (Windows NT 10.0; Win64; x64) AppleWebKit/537.36 (KHTML, like Gecko) Chrome/85.0.4183.121 Safari/537.36",126,"[0.9, 0.5, 0.1]","[0.8, 0.4, 0.2]","[u'red', u'black', u'blue']","[u'left', u'middle', u'right']","[0.8, 0.4, 0.2]","[u'high', u'medium', u'low']","red",49,"left","high","False","False",176,6600,NA
"A2YP60DM1HYTH8","Fri Oct 02 2020 10:39:29 GMT-0400 (Cuba Daylight Time)","Fri Oct 02 2020 10:45:45 GMT-0400 (Cuba Daylight Time)","Mozilla/5.0 (Windows NT 10.0; Win64; x64) AppleWebKit/537.36 (KHTML, like Gecko) Chrome/85.0.4183.121 Safari/537.36",127,"[0.9, 0.5, 0.1]","[0.8, 0.4, 0.2]","[u'red', u'black', u'blue']","[u'left', u'middle', u'right']","[0.8, 0.4, 0.2]","[u'high', u'medium', u'low']","black",50,"middle","medium","True","False",161,6700,NA
"A2YP60DM1HYTH8","Fri Oct 02 2020 10:39:29 GMT-0400 (Cuba Daylight Time)","Fri Oct 02 2020 10:45:45 GMT-0400 (Cuba Daylight Time)","Mozilla/5.0 (Windows NT 10.0; Win64; x64) AppleWebKit/537.36 (KHTML, like Gecko) Chrome/85.0.4183.121 Safari/537.36",128,"[0.9, 0.5, 0.1]","[0.8, 0.4, 0.2]","[u'red', u'black', u'blue']","[u'left', u'middle', u'right']","[0.8, 0.4, 0.2]","[u'high', u'medium', u'low']","black",50,"middle","medium","True","False",236,6800,NA
"A2YP60DM1HYTH8","Fri Oct 02 2020 10:39:29 GMT-0400 (Cuba Daylight Time)","Fri Oct 02 2020 10:45:45 GMT-0400 (Cuba Daylight Time)","Mozilla/5.0 (Windows NT 10.0; Win64; x64) AppleWebKit/537.36 (KHTML, like Gecko) Chrome/85.0.4183.121 Safari/537.36",129,"[0.9, 0.5, 0.1]","[0.8, 0.4, 0.2]","[u'red', u'black', u'blue']","[u'left', u'middle', u'right']","[0.8, 0.4, 0.2]","[u'high', u'medium', u'low']","black",50,"middle","medium","True","False",218,6900,NA
"A2YP60DM1HYTH8","Fri Oct 02 2020 10:39:29 GMT-0400 (Cuba Daylight Time)","Fri Oct 02 2020 10:45:45 GMT-0400 (Cuba Daylight Time)","Mozilla/5.0 (Windows NT 10.0; Win64; x64) AppleWebKit/537.36 (KHTML, like Gecko) Chrome/85.0.4183.121 Safari/537.36",130,"[0.9, 0.5, 0.1]","[0.8, 0.4, 0.2]","[u'red', u'black', u'blue']","[u'left', u'middle', u'right']","[0.8, 0.4, 0.2]","[u'high', u'medium', u'low']","black",50,"middle","medium","False","False",1251,6850,NA
"A2YP60DM1HYTH8","Fri Oct 02 2020 10:39:29 GMT-0400 (Cuba Daylight Time)","Fri Oct 02 2020 10:45:45 GMT-0400 (Cuba Daylight Time)","Mozilla/5.0 (Windows NT 10.0; Win64; x64) AppleWebKit/537.36 (KHTML, like Gecko) Chrome/85.0.4183.121 Safari/537.36",131,"[0.9, 0.5, 0.1]","[0.8, 0.4, 0.2]","[u'red', u'black', u'blue']","[u'left', u'middle', u'right']","[0.8, 0.4, 0.2]","[u'high', u'medium', u'low']","blue",51,"right","low","False","False",434,6800,NA
"A2YP60DM1HYTH8","Fri Oct 02 2020 10:39:29 GMT-0400 (Cuba Daylight Time)","Fri Oct 02 2020 10:45:45 GMT-0400 (Cuba Daylight Time)","Mozilla/5.0 (Windows NT 10.0; Win64; x64) AppleWebKit/537.36 (KHTML, like Gecko) Chrome/85.0.4183.121 Safari/537.36",132,"[0.9, 0.5, 0.1]","[0.8, 0.4, 0.2]","[u'red', u'black', u'blue']","[u'left', u'middle', u'right']","[0.8, 0.4, 0.2]","[u'high', u'medium', u'low']","red",49,"left","high","True","False",512,6900,NA
"A2YP60DM1HYTH8","Fri Oct 02 2020 10:39:29 GMT-0400 (Cuba Daylight Time)","Fri Oct 02 2020 10:45:45 GMT-0400 (Cuba Daylight Time)","Mozilla/5.0 (Windows NT 10.0; Win64; x64) AppleWebKit/537.36 (KHTML, like Gecko) Chrome/85.0.4183.121 Safari/537.36",133,"[0.9, 0.5, 0.1]","[0.8, 0.4, 0.2]","[u'red', u'black', u'blue']","[u'left', u'middle', u'right']","[0.8, 0.4, 0.2]","[u'high', u'medium', u'low']","red",49,"left","high","True","False",724,7000,NA
"A2YP60DM1HYTH8","Fri Oct 02 2020 10:39:29 GMT-0400 (Cuba Daylight Time)","Fri Oct 02 2020 10:45:45 GMT-0400 (Cuba Daylight Time)","Mozilla/5.0 (Windows NT 10.0; Win64; x64) AppleWebKit/537.36 (KHTML, like Gecko) Chrome/85.0.4183.121 Safari/537.36",134,"[0.9, 0.5, 0.1]","[0.8, 0.4, 0.2]","[u'red', u'black', u'blue']","[u'left', u'middle', u'right']","[0.8, 0.4, 0.2]","[u'high', u'medium', u'low']","red",49,"left","high","True","False",250,7100,NA
"A2YP60DM1HYTH8","Fri Oct 02 2020 10:39:29 GMT-0400 (Cuba Daylight Time)","Fri Oct 02 2020 10:45:45 GMT-0400 (Cuba Daylight Time)","Mozilla/5.0 (Windows NT 10.0; Win64; x64) AppleWebKit/537.36 (KHTML, like Gecko) Chrome/85.0.4183.121 Safari/537.36",135,"[0.9, 0.5, 0.1]","[0.8, 0.4, 0.2]","[u'red', u'black', u'blue']","[u'left', u'middle', u'right']","[0.8, 0.4, 0.2]","[u'high', u'medium', u'low']","red",49,"left","high","True","False",426,7200,NA
"A2YP60DM1HYTH8","Fri Oct 02 2020 10:39:29 GMT-0400 (Cuba Daylight Time)","Fri Oct 02 2020 10:45:45 GMT-0400 (Cuba Daylight Time)","Mozilla/5.0 (Windows NT 10.0; Win64; x64) AppleWebKit/537.36 (KHTML, like Gecko) Chrome/85.0.4183.121 Safari/537.36",136,"[0.9, 0.5, 0.1]","[0.8, 0.4, 0.2]","[u'red', u'black', u'blue']","[u'left', u'middle', u'right']","[0.8, 0.4, 0.2]","[u'high', u'medium', u'low']","red",49,"left","high","True","False",244,7300,NA
"A2YP60DM1HYTH8","Fri Oct 02 2020 10:39:29 GMT-0400 (Cuba Daylight Time)","Fri Oct 02 2020 10:45:45 GMT-0400 (Cuba Daylight Time)","Mozilla/5.0 (Windows NT 10.0; Win64; x64) AppleWebKit/537.36 (KHTML, like Gecko) Chrome/85.0.4183.121 Safari/537.36",137,"[0.9, 0.5, 0.1]","[0.8, 0.4, 0.2]","[u'red', u'black', u'blue']","[u'left', u'middle', u'right']","[0.8, 0.4, 0.2]","[u'high', u'medium', u'low']","red",49,"left","high","True","False",637,7400,NA
"A2YP60DM1HYTH8","Fri Oct 02 2020 10:39:29 GMT-0400 (Cuba Daylight Time)","Fri Oct 02 2020 10:45:45 GMT-0400 (Cuba Daylight Time)","Mozilla/5.0 (Windows NT 10.0; Win64; x64) AppleWebKit/537.36 (KHTML, like Gecko) Chrome/85.0.4183.121 Safari/537.36",138,"[0.9, 0.5, 0.1]","[0.8, 0.4, 0.2]","[u'red', u'black', u'blue']","[u'left', u'middle', u'right']","[0.8, 0.4, 0.2]","[u'high', u'medium', u'low']","red",49,"left","high","True","False",1287,7500,NA
"A2YP60DM1HYTH8","Fri Oct 02 2020 10:39:29 GMT-0400 (Cuba Daylight Time)","Fri Oct 02 2020 10:45:45 GMT-0400 (Cuba Daylight Time)","Mozilla/5.0 (Windows NT 10.0; Win64; x64) AppleWebKit/537.36 (KHTML, like Gecko) Chrome/85.0.4183.121 Safari/537.36",139,"[0.9, 0.5, 0.1]","[0.8, 0.4, 0.2]","[u'red', u'black', u'blue']","[u'left', u'middle', u'right']","[0.8, 0.4, 0.2]","[u'high', u'medium', u'low']","red",49,"left","high","True","False",1360,7600,NA
"A2YP60DM1HYTH8","Fri Oct 02 2020 10:39:29 GMT-0400 (Cuba Daylight Time)","Fri Oct 02 2020 10:45:45 GMT-0400 (Cuba Daylight Time)","Mozilla/5.0 (Windows NT 10.0; Win64; x64) AppleWebKit/537.36 (KHTML, like Gecko) Chrome/85.0.4183.121 Safari/537.36",140,"[0.9, 0.5, 0.1]","[0.8, 0.4, 0.2]","[u'red', u'black', u'blue']","[u'left', u'middle', u'right']","[0.8, 0.4, 0.2]","[u'high', u'medium', u'low']","red",49,"left","high","False","True",327,7550,NA
"A2YP60DM1HYTH8","Fri Oct 02 2020 10:39:29 GMT-0400 (Cuba Daylight Time)","Fri Oct 02 2020 10:45:45 GMT-0400 (Cuba Daylight Time)","Mozilla/5.0 (Windows NT 10.0; Win64; x64) AppleWebKit/537.36 (KHTML, like Gecko) Chrome/85.0.4183.121 Safari/537.36",141,"[0.9, 0.5, 0.1]","[0.8, 0.4, 0.2]","[u'red', u'black', u'blue']","[u'left', u'middle', u'right']","[0.8, 0.4, 0.2]","[u'low', u'medium', u'high']","red",49,"left","low","False","False",242,7500,NA
"A2YP60DM1HYTH8","Fri Oct 02 2020 10:39:29 GMT-0400 (Cuba Daylight Time)","Fri Oct 02 2020 10:45:45 GMT-0400 (Cuba Daylight Time)","Mozilla/5.0 (Windows NT 10.0; Win64; x64) AppleWebKit/537.36 (KHTML, like Gecko) Chrome/85.0.4183.121 Safari/537.36",142,"[0.9, 0.5, 0.1]","[0.8, 0.4, 0.2]","[u'red', u'black', u'blue']","[u'left', u'middle', u'right']","[0.8, 0.4, 0.2]","[u'low', u'medium', u'high']","red",49,"left","low","False","False",769,7450,NA
"A2YP60DM1HYTH8","Fri Oct 02 2020 10:39:29 GMT-0400 (Cuba Daylight Time)","Fri Oct 02 2020 10:45:45 GMT-0400 (Cuba Daylight Time)","Mozilla/5.0 (Windows NT 10.0; Win64; x64) AppleWebKit/537.36 (KHTML, like Gecko) Chrome/85.0.4183.121 Safari/537.36",143,"[0.9, 0.5, 0.1]","[0.8, 0.4, 0.2]","[u'red', u'black', u'blue']","[u'left', u'middle', u'right']","[0.8, 0.4, 0.2]","[u'low', u'medium', u'high']","red",49,"left","low","False","False",1047,7400,NA
"A2YP60DM1HYTH8","Fri Oct 02 2020 10:39:29 GMT-0400 (Cuba Daylight Time)","Fri Oct 02 2020 10:45:45 GMT-0400 (Cuba Daylight Time)","Mozilla/5.0 (Windows NT 10.0; Win64; x64) AppleWebKit/537.36 (KHTML, like Gecko) Chrome/85.0.4183.121 Safari/537.36",144,"[0.9, 0.5, 0.1]","[0.8, 0.4, 0.2]","[u'red', u'black', u'blue']","[u'left', u'middle', u'right']","[0.8, 0.4, 0.2]","[u'low', u'medium', u'high']","red",49,"left","low","False","False",395,7350,NA
"A2YP60DM1HYTH8","Fri Oct 02 2020 10:39:29 GMT-0400 (Cuba Daylight Time)","Fri Oct 02 2020 10:45:45 GMT-0400 (Cuba Daylight Time)","Mozilla/5.0 (Windows NT 10.0; Win64; x64) AppleWebKit/537.36 (KHTML, like Gecko) Chrome/85.0.4183.121 Safari/537.36",145,"[0.9, 0.5, 0.1]","[0.8, 0.4, 0.2]","[u'red', u'black', u'blue']","[u'left', u'middle', u'right']","[0.8, 0.4, 0.2]","[u'low', u'medium', u'high']","red",49,"left","low","False","False",414,7300,NA
"A2YP60DM1HYTH8","Fri Oct 02 2020 10:39:29 GMT-0400 (Cuba Daylight Time)","Fri Oct 02 2020 10:45:45 GMT-0400 (Cuba Daylight Time)","Mozilla/5.0 (Windows NT 10.0; Win64; x64) AppleWebKit/537.36 (KHTML, like Gecko) Chrome/85.0.4183.121 Safari/537.36",146,"[0.9, 0.5, 0.1]","[0.8, 0.4, 0.2]","[u'red', u'black', u'blue']","[u'left', u'middle', u'right']","[0.8, 0.4, 0.2]","[u'low', u'medium', u'high']","red",49,"left","low","False","False",29,7250,NA
"A2YP60DM1HYTH8","Fri Oct 02 2020 10:39:29 GMT-0400 (Cuba Daylight Time)","Fri Oct 02 2020 10:45:45 GMT-0400 (Cuba Daylight Time)","Mozilla/5.0 (Windows NT 10.0; Win64; x64) AppleWebKit/537.36 (KHTML, like Gecko) Chrome/85.0.4183.121 Safari/537.36",147,"[0.9, 0.5, 0.1]","[0.8, 0.4, 0.2]","[u'red', u'black', u'blue']","[u'left', u'middle', u'right']","[0.8, 0.4, 0.2]","[u'low', u'medium', u'high']","black",50,"middle","medium","False","False",256,7200,NA
"A2YP60DM1HYTH8","Fri Oct 02 2020 10:39:29 GMT-0400 (Cuba Daylight Time)","Fri Oct 02 2020 10:45:45 GMT-0400 (Cuba Daylight Time)","Mozilla/5.0 (Windows NT 10.0; Win64; x64) AppleWebKit/537.36 (KHTML, like Gecko) Chrome/85.0.4183.121 Safari/537.36",148,"[0.9, 0.5, 0.1]","[0.8, 0.4, 0.2]","[u'red', u'black', u'blue']","[u'left', u'middle', u'right']","[0.8, 0.4, 0.2]","[u'low', u'medium', u'high']","blue",51,"right","high","True","False",130,7300,NA
"A2YP60DM1HYTH8","Fri Oct 02 2020 10:39:29 GMT-0400 (Cuba Daylight Time)","Fri Oct 02 2020 10:45:45 GMT-0400 (Cuba Daylight Time)","Mozilla/5.0 (Windows NT 10.0; Win64; x64) AppleWebKit/537.36 (KHTML, like Gecko) Chrome/85.0.4183.121 Safari/537.36",149,"[0.9, 0.5, 0.1]","[0.8, 0.4, 0.2]","[u'red', u'black', u'blue']","[u'left', u'middle', u'right']","[0.8, 0.4, 0.2]","[u'low', u'medium', u'high']","blue",51,"right","high","True","False",154,7400,NA
"A2YP60DM1HYTH8","Fri Oct 02 2020 10:39:29 GMT-0400 (Cuba Daylight Time)","Fri Oct 02 2020 10:45:45 GMT-0400 (Cuba Daylight Time)","Mozilla/5.0 (Windows NT 10.0; Win64; x64) AppleWebKit/537.36 (KHTML, like Gecko) Chrome/85.0.4183.121 Safari/537.36",150,"[0.9, 0.5, 0.1]","[0.8, 0.4, 0.2]","[u'red', u'black', u'blue']","[u'left', u'middle', u'right']","[0.8, 0.4, 0.2]","[u'low', u'medium', u'high']","blue",51,"right","high","True","False",68,7500,NA
"A2YP60DM1HYTH8","Fri Oct 02 2020 10:39:29 GMT-0400 (Cuba Daylight Time)","Fri Oct 02 2020 10:45:45 GMT-0400 (Cuba Daylight Time)","Mozilla/5.0 (Windows NT 10.0; Win64; x64) AppleWebKit/537.36 (KHTML, like Gecko) Chrome/85.0.4183.121 Safari/537.36",151,"[0.9, 0.5, 0.1]","[0.8, 0.4, 0.2]","[u'red', u'black', u'blue']","[u'left', u'middle', u'right']","[0.8, 0.4, 0.2]","[u'low', u'medium', u'high']","blue",51,"right","high","True","False",391,7600,NA
"A2YP60DM1HYTH8","Fri Oct 02 2020 10:39:29 GMT-0400 (Cuba Daylight Time)","Fri Oct 02 2020 10:45:45 GMT-0400 (Cuba Daylight Time)","Mozilla/5.0 (Windows NT 10.0; Win64; x64) AppleWebKit/537.36 (KHTML, like Gecko) Chrome/85.0.4183.121 Safari/537.36",152,"[0.9, 0.5, 0.1]","[0.8, 0.4, 0.2]","[u'red', u'black', u'blue']","[u'left', u'middle', u'right']","[0.8, 0.4, 0.2]","[u'low', u'medium', u'high']","blue",51,"right","high","True","False",95,7700,NA
"A2YP60DM1HYTH8","Fri Oct 02 2020 10:39:29 GMT-0400 (Cuba Daylight Time)","Fri Oct 02 2020 10:45:45 GMT-0400 (Cuba Daylight Time)","Mozilla/5.0 (Windows NT 10.0; Win64; x64) AppleWebKit/537.36 (KHTML, like Gecko) Chrome/85.0.4183.121 Safari/537.36",153,"[0.9, 0.5, 0.1]","[0.8, 0.4, 0.2]","[u'red', u'black', u'blue']","[u'left', u'middle', u'right']","[0.8, 0.4, 0.2]","[u'low', u'medium', u'high']","blue",51,"right","high","True","False",211,7800,NA
"A2YP60DM1HYTH8","Fri Oct 02 2020 10:39:29 GMT-0400 (Cuba Daylight Time)","Fri Oct 02 2020 10:45:45 GMT-0400 (Cuba Daylight Time)","Mozilla/5.0 (Windows NT 10.0; Win64; x64) AppleWebKit/537.36 (KHTML, like Gecko) Chrome/85.0.4183.121 Safari/537.36",154,"[0.9, 0.5, 0.1]","[0.8, 0.4, 0.2]","[u'red', u'black', u'blue']","[u'left', u'middle', u'right']","[0.8, 0.4, 0.2]","[u'low', u'medium', u'high']","blue",51,"right","high","True","False",74,7900,NA
"A2YP60DM1HYTH8","Fri Oct 02 2020 10:39:29 GMT-0400 (Cuba Daylight Time)","Fri Oct 02 2020 10:45:45 GMT-0400 (Cuba Daylight Time)","Mozilla/5.0 (Windows NT 10.0; Win64; x64) AppleWebKit/537.36 (KHTML, like Gecko) Chrome/85.0.4183.121 Safari/537.36",155,"[0.9, 0.5, 0.1]","[0.8, 0.4, 0.2]","[u'red', u'black', u'blue']","[u'left', u'middle', u'right']","[0.8, 0.4, 0.2]","[u'low', u'medium', u'high']","blue",51,"right","high","True","False",337,8000,NA
"A2YP60DM1HYTH8","Fri Oct 02 2020 10:39:29 GMT-0400 (Cuba Daylight Time)","Fri Oct 02 2020 10:45:45 GMT-0400 (Cuba Daylight Time)","Mozilla/5.0 (Windows NT 10.0; Win64; x64) AppleWebKit/537.36 (KHTML, like Gecko) Chrome/85.0.4183.121 Safari/537.36",156,"[0.9, 0.5, 0.1]","[0.8, 0.4, 0.2]","[u'red', u'black', u'blue']","[u'left', u'middle', u'right']","[0.8, 0.4, 0.2]","[u'low', u'medium', u'high']","blue",51,"right","high","True","True",81,8100,NA
"A2YP60DM1HYTH8","Fri Oct 02 2020 10:39:29 GMT-0400 (Cuba Daylight Time)","Fri Oct 02 2020 10:45:45 GMT-0400 (Cuba Daylight Time)","Mozilla/5.0 (Windows NT 10.0; Win64; x64) AppleWebKit/537.36 (KHTML, like Gecko) Chrome/85.0.4183.121 Safari/537.36",157,"[0.9, 0.5, 0.1]","[0.8, 0.4, 0.2]","[u'red', u'black', u'blue']","[u'left', u'middle', u'right']","[0.8, 0.4, 0.2]","[u'high', u'medium', u'low']","blue",51,"right","low","True","False",180,8200,NA
"A2YP60DM1HYTH8","Fri Oct 02 2020 10:39:29 GMT-0400 (Cuba Daylight Time)","Fri Oct 02 2020 10:45:45 GMT-0400 (Cuba Daylight Time)","Mozilla/5.0 (Windows NT 10.0; Win64; x64) AppleWebKit/537.36 (KHTML, like Gecko) Chrome/85.0.4183.121 Safari/537.36",158,"[0.9, 0.5, 0.1]","[0.8, 0.4, 0.2]","[u'red', u'black', u'blue']","[u'left', u'middle', u'right']","[0.8, 0.4, 0.2]","[u'high', u'medium', u'low']","blue",51,"right","low","False","False",260,8150,NA
"A2YP60DM1HYTH8","Fri Oct 02 2020 10:39:29 GMT-0400 (Cuba Daylight Time)","Fri Oct 02 2020 10:45:45 GMT-0400 (Cuba Daylight Time)","Mozilla/5.0 (Windows NT 10.0; Win64; x64) AppleWebKit/537.36 (KHTML, like Gecko) Chrome/85.0.4183.121 Safari/537.36",159,"[0.9, 0.5, 0.1]","[0.8, 0.4, 0.2]","[u'red', u'black', u'blue']","[u'left', u'middle', u'right']","[0.8, 0.4, 0.2]","[u'high', u'medium', u'low']","red",49,"left","high","True","False",216,8250,NA
"A2YP60DM1HYTH8","Fri Oct 02 2020 10:39:29 GMT-0400 (Cuba Daylight Time)","Fri Oct 02 2020 10:45:45 GMT-0400 (Cuba Daylight Time)","Mozilla/5.0 (Windows NT 10.0; Win64; x64) AppleWebKit/537.36 (KHTML, like Gecko) Chrome/85.0.4183.121 Safari/537.36",160,"[0.9, 0.5, 0.1]","[0.8, 0.4, 0.2]","[u'red', u'black', u'blue']","[u'left', u'middle', u'right']","[0.8, 0.4, 0.2]","[u'high', u'medium', u'low']","red",49,"left","high","True","False",19,8350,NA
