"src_subject_id","start_time","end_time","browser","index","first_half_probabilities","second_half_probabilities","deck_color","deck_position","deck_probabilities","deck_contingencies","response_color","key_press","response_position","response_probability","reward_type","trial_type","rt","reward_tally","exclusion_reason"
"A2ZRL1ZWWXJ0L7","Thu Oct 01 2020 12:30:12 GMT-0700 (Mountain Standard Time)","Thu Oct 01 2020 12:37:15 GMT-0700 (Mountain Standard Time)","Mozilla/5.0 (Windows NT 10.0; Win64; x64; rv:81.0) Gecko/20100101 Firefox/81.0",1,"[0.9, 0.5, 0.1]","[0.8, 0.4, 0.2]","[u'blue', u'black', u'red']","[u'left', u'middle', u'right']","[0.9, 0.5, 0.1]","[u'low', u'medium', u'high']","blue",49,"left","low","False","False",850,-50,NA
"A2ZRL1ZWWXJ0L7","Thu Oct 01 2020 12:30:12 GMT-0700 (Mountain Standard Time)","Thu Oct 01 2020 12:37:15 GMT-0700 (Mountain Standard Time)","Mozilla/5.0 (Windows NT 10.0; Win64; x64; rv:81.0) Gecko/20100101 Firefox/81.0",2,"[0.9, 0.5, 0.1]","[0.8, 0.4, 0.2]","[u'blue', u'black', u'red']","[u'left', u'middle', u'right']","[0.9, 0.5, 0.1]","[u'low', u'medium', u'high']","black",50,"middle","medium","True","False",1084,50,NA
"A2ZRL1ZWWXJ0L7","Thu Oct 01 2020 12:30:12 GMT-0700 (Mountain Standard Time)","Thu Oct 01 2020 12:37:15 GMT-0700 (Mountain Standard Time)","Mozilla/5.0 (Windows NT 10.0; Win64; x64; rv:81.0) Gecko/20100101 Firefox/81.0",3,"[0.9, 0.5, 0.1]","[0.8, 0.4, 0.2]","[u'blue', u'black', u'red']","[u'left', u'middle', u'right']","[0.9, 0.5, 0.1]","[u'low', u'medium', u'high']","black",50,"middle","medium","False","False",316,0,NA
"A2ZRL1ZWWXJ0L7","Thu Oct 01 2020 12:30:12 GMT-0700 (Mountain Standard Time)","Thu Oct 01 2020 12:37:15 GMT-0700 (Mountain Standard Time)","Mozilla/5.0 (Windows NT 10.0; Win64; x64; rv:81.0) Gecko/20100101 Firefox/81.0",4,"[0.9, 0.5, 0.1]","[0.8, 0.4, 0.2]","[u'blue', u'black', u'red']","[u'left', u'middle', u'right']","[0.9, 0.5, 0.1]","[u'low', u'medium', u'high']","blue",49,"left","low","False","False",315,-50,NA
"A2ZRL1ZWWXJ0L7","Thu Oct 01 2020 12:30:12 GMT-0700 (Mountain Standard Time)","Thu Oct 01 2020 12:37:15 GMT-0700 (Mountain Standard Time)","Mozilla/5.0 (Windows NT 10.0; Win64; x64; rv:81.0) Gecko/20100101 Firefox/81.0",5,"[0.9, 0.5, 0.1]","[0.8, 0.4, 0.2]","[u'blue', u'black', u'red']","[u'left', u'middle', u'right']","[0.9, 0.5, 0.1]","[u'low', u'medium', u'high']","red",51,"right","high","True","False",271,50,NA
"A2ZRL1ZWWXJ0L7","Thu Oct 01 2020 12:30:12 GMT-0700 (Mountain Standard Time)","Thu Oct 01 2020 12:37:15 GMT-0700 (Mountain Standard Time)","Mozilla/5.0 (Windows NT 10.0; Win64; x64; rv:81.0) Gecko/20100101 Firefox/81.0",6,"[0.9, 0.5, 0.1]","[0.8, 0.4, 0.2]","[u'blue', u'black', u'red']","[u'left', u'middle', u'right']","[0.9, 0.5, 0.1]","[u'low', u'medium', u'high']","red",51,"right","high","True","False",300,150,NA
"A2ZRL1ZWWXJ0L7","Thu Oct 01 2020 12:30:12 GMT-0700 (Mountain Standard Time)","Thu Oct 01 2020 12:37:15 GMT-0700 (Mountain Standard Time)","Mozilla/5.0 (Windows NT 10.0; Win64; x64; rv:81.0) Gecko/20100101 Firefox/81.0",7,"[0.9, 0.5, 0.1]","[0.8, 0.4, 0.2]","[u'blue', u'black', u'red']","[u'left', u'middle', u'right']","[0.9, 0.5, 0.1]","[u'low', u'medium', u'high']","red",51,"right","high","True","False",368,250,NA
"A2ZRL1ZWWXJ0L7","Thu Oct 01 2020 12:30:12 GMT-0700 (Mountain Standard Time)","Thu Oct 01 2020 12:37:15 GMT-0700 (Mountain Standard Time)","Mozilla/5.0 (Windows NT 10.0; Win64; x64; rv:81.0) Gecko/20100101 Firefox/81.0",8,"[0.9, 0.5, 0.1]","[0.8, 0.4, 0.2]","[u'blue', u'black', u'red']","[u'left', u'middle', u'right']","[0.9, 0.5, 0.1]","[u'low', u'medium', u'high']","red",51,"right","high","True","False",424,350,NA
"A2ZRL1ZWWXJ0L7","Thu Oct 01 2020 12:30:12 GMT-0700 (Mountain Standard Time)","Thu Oct 01 2020 12:37:15 GMT-0700 (Mountain Standard Time)","Mozilla/5.0 (Windows NT 10.0; Win64; x64; rv:81.0) Gecko/20100101 Firefox/81.0",9,"[0.9, 0.5, 0.1]","[0.8, 0.4, 0.2]","[u'blue', u'black', u'red']","[u'left', u'middle', u'right']","[0.9, 0.5, 0.1]","[u'low', u'medium', u'high']","red",51,"right","high","False","False",442,300,NA
"A2ZRL1ZWWXJ0L7","Thu Oct 01 2020 12:30:12 GMT-0700 (Mountain Standard Time)","Thu Oct 01 2020 12:37:15 GMT-0700 (Mountain Standard Time)","Mozilla/5.0 (Windows NT 10.0; Win64; x64; rv:81.0) Gecko/20100101 Firefox/81.0",10,"[0.9, 0.5, 0.1]","[0.8, 0.4, 0.2]","[u'blue', u'black', u'red']","[u'left', u'middle', u'right']","[0.9, 0.5, 0.1]","[u'low', u'medium', u'high']","blue",49,"left","low","False","False",334,250,NA
"A2ZRL1ZWWXJ0L7","Thu Oct 01 2020 12:30:12 GMT-0700 (Mountain Standard Time)","Thu Oct 01 2020 12:37:15 GMT-0700 (Mountain Standard Time)","Mozilla/5.0 (Windows NT 10.0; Win64; x64; rv:81.0) Gecko/20100101 Firefox/81.0",11,"[0.9, 0.5, 0.1]","[0.8, 0.4, 0.2]","[u'blue', u'black', u'red']","[u'left', u'middle', u'right']","[0.9, 0.5, 0.1]","[u'low', u'medium', u'high']","black",50,"middle","medium","False","False",256,200,NA
"A2ZRL1ZWWXJ0L7","Thu Oct 01 2020 12:30:12 GMT-0700 (Mountain Standard Time)","Thu Oct 01 2020 12:37:15 GMT-0700 (Mountain Standard Time)","Mozilla/5.0 (Windows NT 10.0; Win64; x64; rv:81.0) Gecko/20100101 Firefox/81.0",12,"[0.9, 0.5, 0.1]","[0.8, 0.4, 0.2]","[u'blue', u'black', u'red']","[u'left', u'middle', u'right']","[0.9, 0.5, 0.1]","[u'low', u'medium', u'high']","blue",49,"left","low","False","False",248,150,NA
"A2ZRL1ZWWXJ0L7","Thu Oct 01 2020 12:30:12 GMT-0700 (Mountain Standard Time)","Thu Oct 01 2020 12:37:15 GMT-0700 (Mountain Standard Time)","Mozilla/5.0 (Windows NT 10.0; Win64; x64; rv:81.0) Gecko/20100101 Firefox/81.0",13,"[0.9, 0.5, 0.1]","[0.8, 0.4, 0.2]","[u'blue', u'black', u'red']","[u'left', u'middle', u'right']","[0.9, 0.5, 0.1]","[u'low', u'medium', u'high']","red",51,"right","high","True","False",260,250,NA
"A2ZRL1ZWWXJ0L7","Thu Oct 01 2020 12:30:12 GMT-0700 (Mountain Standard Time)","Thu Oct 01 2020 12:37:15 GMT-0700 (Mountain Standard Time)","Mozilla/5.0 (Windows NT 10.0; Win64; x64; rv:81.0) Gecko/20100101 Firefox/81.0",14,"[0.9, 0.5, 0.1]","[0.8, 0.4, 0.2]","[u'blue', u'black', u'red']","[u'left', u'middle', u'right']","[0.9, 0.5, 0.1]","[u'low', u'medium', u'high']","red",51,"right","high","True","False",329,350,NA
"A2ZRL1ZWWXJ0L7","Thu Oct 01 2020 12:30:12 GMT-0700 (Mountain Standard Time)","Thu Oct 01 2020 12:37:15 GMT-0700 (Mountain Standard Time)","Mozilla/5.0 (Windows NT 10.0; Win64; x64; rv:81.0) Gecko/20100101 Firefox/81.0",15,"[0.9, 0.5, 0.1]","[0.8, 0.4, 0.2]","[u'blue', u'black', u'red']","[u'left', u'middle', u'right']","[0.9, 0.5, 0.1]","[u'low', u'medium', u'high']","red",51,"right","high","True","False",502,450,NA
"A2ZRL1ZWWXJ0L7","Thu Oct 01 2020 12:30:12 GMT-0700 (Mountain Standard Time)","Thu Oct 01 2020 12:37:15 GMT-0700 (Mountain Standard Time)","Mozilla/5.0 (Windows NT 10.0; Win64; x64; rv:81.0) Gecko/20100101 Firefox/81.0",16,"[0.9, 0.5, 0.1]","[0.8, 0.4, 0.2]","[u'blue', u'black', u'red']","[u'left', u'middle', u'right']","[0.9, 0.5, 0.1]","[u'low', u'medium', u'high']","red",51,"right","high","False","False",536,400,NA
"A2ZRL1ZWWXJ0L7","Thu Oct 01 2020 12:30:12 GMT-0700 (Mountain Standard Time)","Thu Oct 01 2020 12:37:15 GMT-0700 (Mountain Standard Time)","Mozilla/5.0 (Windows NT 10.0; Win64; x64; rv:81.0) Gecko/20100101 Firefox/81.0",17,"[0.9, 0.5, 0.1]","[0.8, 0.4, 0.2]","[u'blue', u'black', u'red']","[u'left', u'middle', u'right']","[0.9, 0.5, 0.1]","[u'low', u'medium', u'high']","black",50,"middle","medium","False","False",530,350,NA
"A2ZRL1ZWWXJ0L7","Thu Oct 01 2020 12:30:12 GMT-0700 (Mountain Standard Time)","Thu Oct 01 2020 12:37:15 GMT-0700 (Mountain Standard Time)","Mozilla/5.0 (Windows NT 10.0; Win64; x64; rv:81.0) Gecko/20100101 Firefox/81.0",18,"[0.9, 0.5, 0.1]","[0.8, 0.4, 0.2]","[u'blue', u'black', u'red']","[u'left', u'middle', u'right']","[0.9, 0.5, 0.1]","[u'low', u'medium', u'high']","blue",49,"left","low","False","False",276,300,NA
"A2ZRL1ZWWXJ0L7","Thu Oct 01 2020 12:30:12 GMT-0700 (Mountain Standard Time)","Thu Oct 01 2020 12:37:15 GMT-0700 (Mountain Standard Time)","Mozilla/5.0 (Windows NT 10.0; Win64; x64; rv:81.0) Gecko/20100101 Firefox/81.0",19,"[0.9, 0.5, 0.1]","[0.8, 0.4, 0.2]","[u'blue', u'black', u'red']","[u'left', u'middle', u'right']","[0.9, 0.5, 0.1]","[u'low', u'medium', u'high']","red",51,"right","high","True","False",96,400,NA
"A2ZRL1ZWWXJ0L7","Thu Oct 01 2020 12:30:12 GMT-0700 (Mountain Standard Time)","Thu Oct 01 2020 12:37:15 GMT-0700 (Mountain Standard Time)","Mozilla/5.0 (Windows NT 10.0; Win64; x64; rv:81.0) Gecko/20100101 Firefox/81.0",20,"[0.9, 0.5, 0.1]","[0.8, 0.4, 0.2]","[u'blue', u'black', u'red']","[u'left', u'middle', u'right']","[0.9, 0.5, 0.1]","[u'low', u'medium', u'high']","red",51,"right","high","True","False",356,500,NA
"A2ZRL1ZWWXJ0L7","Thu Oct 01 2020 12:30:12 GMT-0700 (Mountain Standard Time)","Thu Oct 01 2020 12:37:15 GMT-0700 (Mountain Standard Time)","Mozilla/5.0 (Windows NT 10.0; Win64; x64; rv:81.0) Gecko/20100101 Firefox/81.0",21,"[0.9, 0.5, 0.1]","[0.8, 0.4, 0.2]","[u'blue', u'black', u'red']","[u'left', u'middle', u'right']","[0.9, 0.5, 0.1]","[u'low', u'medium', u'high']","red",51,"right","high","True","False",464,600,NA
"A2ZRL1ZWWXJ0L7","Thu Oct 01 2020 12:30:12 GMT-0700 (Mountain Standard Time)","Thu Oct 01 2020 12:37:15 GMT-0700 (Mountain Standard Time)","Mozilla/5.0 (Windows NT 10.0; Win64; x64; rv:81.0) Gecko/20100101 Firefox/81.0",22,"[0.9, 0.5, 0.1]","[0.8, 0.4, 0.2]","[u'blue', u'black', u'red']","[u'left', u'middle', u'right']","[0.9, 0.5, 0.1]","[u'low', u'medium', u'high']","red",51,"right","high","True","False",445,700,NA
"A2ZRL1ZWWXJ0L7","Thu Oct 01 2020 12:30:12 GMT-0700 (Mountain Standard Time)","Thu Oct 01 2020 12:37:15 GMT-0700 (Mountain Standard Time)","Mozilla/5.0 (Windows NT 10.0; Win64; x64; rv:81.0) Gecko/20100101 Firefox/81.0",23,"[0.9, 0.5, 0.1]","[0.8, 0.4, 0.2]","[u'blue', u'black', u'red']","[u'left', u'middle', u'right']","[0.9, 0.5, 0.1]","[u'low', u'medium', u'high']","red",51,"right","high","False","False",438,650,NA
"A2ZRL1ZWWXJ0L7","Thu Oct 01 2020 12:30:12 GMT-0700 (Mountain Standard Time)","Thu Oct 01 2020 12:37:15 GMT-0700 (Mountain Standard Time)","Mozilla/5.0 (Windows NT 10.0; Win64; x64; rv:81.0) Gecko/20100101 Firefox/81.0",24,"[0.9, 0.5, 0.1]","[0.8, 0.4, 0.2]","[u'blue', u'black', u'red']","[u'left', u'middle', u'right']","[0.9, 0.5, 0.1]","[u'low', u'medium', u'high']","black",50,"middle","medium","False","False",443,600,NA
"A2ZRL1ZWWXJ0L7","Thu Oct 01 2020 12:30:12 GMT-0700 (Mountain Standard Time)","Thu Oct 01 2020 12:37:15 GMT-0700 (Mountain Standard Time)","Mozilla/5.0 (Windows NT 10.0; Win64; x64; rv:81.0) Gecko/20100101 Firefox/81.0",25,"[0.9, 0.5, 0.1]","[0.8, 0.4, 0.2]","[u'blue', u'black', u'red']","[u'left', u'middle', u'right']","[0.9, 0.5, 0.1]","[u'low', u'medium', u'high']","blue",49,"left","low","False","False",134,550,NA
"A2ZRL1ZWWXJ0L7","Thu Oct 01 2020 12:30:12 GMT-0700 (Mountain Standard Time)","Thu Oct 01 2020 12:37:15 GMT-0700 (Mountain Standard Time)","Mozilla/5.0 (Windows NT 10.0; Win64; x64; rv:81.0) Gecko/20100101 Firefox/81.0",26,"[0.9, 0.5, 0.1]","[0.8, 0.4, 0.2]","[u'blue', u'black', u'red']","[u'left', u'middle', u'right']","[0.9, 0.5, 0.1]","[u'low', u'medium', u'high']","red",51,"right","high","True","False",77,650,NA
"A2ZRL1ZWWXJ0L7","Thu Oct 01 2020 12:30:12 GMT-0700 (Mountain Standard Time)","Thu Oct 01 2020 12:37:15 GMT-0700 (Mountain Standard Time)","Mozilla/5.0 (Windows NT 10.0; Win64; x64; rv:81.0) Gecko/20100101 Firefox/81.0",27,"[0.9, 0.5, 0.1]","[0.8, 0.4, 0.2]","[u'blue', u'black', u'red']","[u'left', u'middle', u'right']","[0.9, 0.5, 0.1]","[u'low', u'medium', u'high']","red",51,"right","high","True","False",306,750,NA
"A2ZRL1ZWWXJ0L7","Thu Oct 01 2020 12:30:12 GMT-0700 (Mountain Standard Time)","Thu Oct 01 2020 12:37:15 GMT-0700 (Mountain Standard Time)","Mozilla/5.0 (Windows NT 10.0; Win64; x64; rv:81.0) Gecko/20100101 Firefox/81.0",28,"[0.9, 0.5, 0.1]","[0.8, 0.4, 0.2]","[u'blue', u'black', u'red']","[u'left', u'middle', u'right']","[0.9, 0.5, 0.1]","[u'low', u'medium', u'high']","blue",49,"left","low","False","False",128,700,NA
"A2ZRL1ZWWXJ0L7","Thu Oct 01 2020 12:30:12 GMT-0700 (Mountain Standard Time)","Thu Oct 01 2020 12:37:15 GMT-0700 (Mountain Standard Time)","Mozilla/5.0 (Windows NT 10.0; Win64; x64; rv:81.0) Gecko/20100101 Firefox/81.0",29,"[0.9, 0.5, 0.1]","[0.8, 0.4, 0.2]","[u'blue', u'black', u'red']","[u'left', u'middle', u'right']","[0.9, 0.5, 0.1]","[u'low', u'medium', u'high']","black",50,"middle","medium","False","False",250,650,NA
"A2ZRL1ZWWXJ0L7","Thu Oct 01 2020 12:30:12 GMT-0700 (Mountain Standard Time)","Thu Oct 01 2020 12:37:15 GMT-0700 (Mountain Standard Time)","Mozilla/5.0 (Windows NT 10.0; Win64; x64; rv:81.0) Gecko/20100101 Firefox/81.0",30,"[0.9, 0.5, 0.1]","[0.8, 0.4, 0.2]","[u'blue', u'black', u'red']","[u'left', u'middle', u'right']","[0.9, 0.5, 0.1]","[u'low', u'medium', u'high']","red",51,"right","high","True","False",142,750,NA
"A2ZRL1ZWWXJ0L7","Thu Oct 01 2020 12:30:12 GMT-0700 (Mountain Standard Time)","Thu Oct 01 2020 12:37:15 GMT-0700 (Mountain Standard Time)","Mozilla/5.0 (Windows NT 10.0; Win64; x64; rv:81.0) Gecko/20100101 Firefox/81.0",31,"[0.9, 0.5, 0.1]","[0.8, 0.4, 0.2]","[u'blue', u'black', u'red']","[u'left', u'middle', u'right']","[0.9, 0.5, 0.1]","[u'low', u'medium', u'high']","red",51,"right","high","True","False",256,850,NA
"A2ZRL1ZWWXJ0L7","Thu Oct 01 2020 12:30:12 GMT-0700 (Mountain Standard Time)","Thu Oct 01 2020 12:37:15 GMT-0700 (Mountain Standard Time)","Mozilla/5.0 (Windows NT 10.0; Win64; x64; rv:81.0) Gecko/20100101 Firefox/81.0",32,"[0.9, 0.5, 0.1]","[0.8, 0.4, 0.2]","[u'blue', u'black', u'red']","[u'left', u'middle', u'right']","[0.9, 0.5, 0.1]","[u'low', u'medium', u'high']","red",51,"right","high","True","False",143,950,NA
"A2ZRL1ZWWXJ0L7","Thu Oct 01 2020 12:30:12 GMT-0700 (Mountain Standard Time)","Thu Oct 01 2020 12:37:15 GMT-0700 (Mountain Standard Time)","Mozilla/5.0 (Windows NT 10.0; Win64; x64; rv:81.0) Gecko/20100101 Firefox/81.0",33,"[0.9, 0.5, 0.1]","[0.8, 0.4, 0.2]","[u'blue', u'black', u'red']","[u'left', u'middle', u'right']","[0.9, 0.5, 0.1]","[u'low', u'medium', u'high']","red",51,"right","high","True","False",185,1050,NA
"A2ZRL1ZWWXJ0L7","Thu Oct 01 2020 12:30:12 GMT-0700 (Mountain Standard Time)","Thu Oct 01 2020 12:37:15 GMT-0700 (Mountain Standard Time)","Mozilla/5.0 (Windows NT 10.0; Win64; x64; rv:81.0) Gecko/20100101 Firefox/81.0",34,"[0.9, 0.5, 0.1]","[0.8, 0.4, 0.2]","[u'blue', u'black', u'red']","[u'left', u'middle', u'right']","[0.9, 0.5, 0.1]","[u'low', u'medium', u'high']","red",51,"right","high","True","False",241,1150,NA
"A2ZRL1ZWWXJ0L7","Thu Oct 01 2020 12:30:12 GMT-0700 (Mountain Standard Time)","Thu Oct 01 2020 12:37:15 GMT-0700 (Mountain Standard Time)","Mozilla/5.0 (Windows NT 10.0; Win64; x64; rv:81.0) Gecko/20100101 Firefox/81.0",35,"[0.9, 0.5, 0.1]","[0.8, 0.4, 0.2]","[u'blue', u'black', u'red']","[u'left', u'middle', u'right']","[0.9, 0.5, 0.1]","[u'low', u'medium', u'high']","red",51,"right","high","True","False",210,1250,NA
"A2ZRL1ZWWXJ0L7","Thu Oct 01 2020 12:30:12 GMT-0700 (Mountain Standard Time)","Thu Oct 01 2020 12:37:15 GMT-0700 (Mountain Standard Time)","Mozilla/5.0 (Windows NT 10.0; Win64; x64; rv:81.0) Gecko/20100101 Firefox/81.0",36,"[0.9, 0.5, 0.1]","[0.8, 0.4, 0.2]","[u'blue', u'black', u'red']","[u'left', u'middle', u'right']","[0.9, 0.5, 0.1]","[u'low', u'medium', u'high']","red",51,"right","high","True","False",100,1350,NA
"A2ZRL1ZWWXJ0L7","Thu Oct 01 2020 12:30:12 GMT-0700 (Mountain Standard Time)","Thu Oct 01 2020 12:37:15 GMT-0700 (Mountain Standard Time)","Mozilla/5.0 (Windows NT 10.0; Win64; x64; rv:81.0) Gecko/20100101 Firefox/81.0",37,"[0.9, 0.5, 0.1]","[0.8, 0.4, 0.2]","[u'blue', u'black', u'red']","[u'left', u'middle', u'right']","[0.9, 0.5, 0.1]","[u'low', u'medium', u'high']","red",51,"right","high","True","False",639,1450,NA
"A2ZRL1ZWWXJ0L7","Thu Oct 01 2020 12:30:12 GMT-0700 (Mountain Standard Time)","Thu Oct 01 2020 12:37:15 GMT-0700 (Mountain Standard Time)","Mozilla/5.0 (Windows NT 10.0; Win64; x64; rv:81.0) Gecko/20100101 Firefox/81.0",38,"[0.9, 0.5, 0.1]","[0.8, 0.4, 0.2]","[u'blue', u'black', u'red']","[u'left', u'middle', u'right']","[0.9, 0.5, 0.1]","[u'low', u'medium', u'high']","red",51,"right","high","True","True",367,1550,NA
"A2ZRL1ZWWXJ0L7","Thu Oct 01 2020 12:30:12 GMT-0700 (Mountain Standard Time)","Thu Oct 01 2020 12:37:15 GMT-0700 (Mountain Standard Time)","Mozilla/5.0 (Windows NT 10.0; Win64; x64; rv:81.0) Gecko/20100101 Firefox/81.0",39,"[0.9, 0.5, 0.1]","[0.8, 0.4, 0.2]","[u'blue', u'black', u'red']","[u'left', u'middle', u'right']","[0.9, 0.5, 0.1]","[u'high', u'medium', u'low']","red",51,"right","low","False","False",318,1500,NA
"A2ZRL1ZWWXJ0L7","Thu Oct 01 2020 12:30:12 GMT-0700 (Mountain Standard Time)","Thu Oct 01 2020 12:37:15 GMT-0700 (Mountain Standard Time)","Mozilla/5.0 (Windows NT 10.0; Win64; x64; rv:81.0) Gecko/20100101 Firefox/81.0",40,"[0.9, 0.5, 0.1]","[0.8, 0.4, 0.2]","[u'blue', u'black', u'red']","[u'left', u'middle', u'right']","[0.9, 0.5, 0.1]","[u'high', u'medium', u'low']","black",50,"middle","medium","True","False",289,1600,NA
"A2ZRL1ZWWXJ0L7","Thu Oct 01 2020 12:30:12 GMT-0700 (Mountain Standard Time)","Thu Oct 01 2020 12:37:15 GMT-0700 (Mountain Standard Time)","Mozilla/5.0 (Windows NT 10.0; Win64; x64; rv:81.0) Gecko/20100101 Firefox/81.0",41,"[0.9, 0.5, 0.1]","[0.8, 0.4, 0.2]","[u'blue', u'black', u'red']","[u'left', u'middle', u'right']","[0.9, 0.5, 0.1]","[u'medium', u'high', u'low']","black",50,"middle","high","True","False",575,1700,NA
"A2ZRL1ZWWXJ0L7","Thu Oct 01 2020 12:30:12 GMT-0700 (Mountain Standard Time)","Thu Oct 01 2020 12:37:15 GMT-0700 (Mountain Standard Time)","Mozilla/5.0 (Windows NT 10.0; Win64; x64; rv:81.0) Gecko/20100101 Firefox/81.0",42,"[0.9, 0.5, 0.1]","[0.8, 0.4, 0.2]","[u'blue', u'black', u'red']","[u'left', u'middle', u'right']","[0.9, 0.5, 0.1]","[u'medium', u'high', u'low']","black",50,"middle","high","True","False",292,1800,NA
"A2ZRL1ZWWXJ0L7","Thu Oct 01 2020 12:30:12 GMT-0700 (Mountain Standard Time)","Thu Oct 01 2020 12:37:15 GMT-0700 (Mountain Standard Time)","Mozilla/5.0 (Windows NT 10.0; Win64; x64; rv:81.0) Gecko/20100101 Firefox/81.0",43,"[0.9, 0.5, 0.1]","[0.8, 0.4, 0.2]","[u'blue', u'black', u'red']","[u'left', u'middle', u'right']","[0.9, 0.5, 0.1]","[u'medium', u'high', u'low']","black",50,"middle","high","True","False",59,1900,NA
"A2ZRL1ZWWXJ0L7","Thu Oct 01 2020 12:30:12 GMT-0700 (Mountain Standard Time)","Thu Oct 01 2020 12:37:15 GMT-0700 (Mountain Standard Time)","Mozilla/5.0 (Windows NT 10.0; Win64; x64; rv:81.0) Gecko/20100101 Firefox/81.0",44,"[0.9, 0.5, 0.1]","[0.8, 0.4, 0.2]","[u'blue', u'black', u'red']","[u'left', u'middle', u'right']","[0.9, 0.5, 0.1]","[u'medium', u'high', u'low']","black",50,"middle","high","True","False",339,2000,NA
"A2ZRL1ZWWXJ0L7","Thu Oct 01 2020 12:30:12 GMT-0700 (Mountain Standard Time)","Thu Oct 01 2020 12:37:15 GMT-0700 (Mountain Standard Time)","Mozilla/5.0 (Windows NT 10.0; Win64; x64; rv:81.0) Gecko/20100101 Firefox/81.0",45,"[0.9, 0.5, 0.1]","[0.8, 0.4, 0.2]","[u'blue', u'black', u'red']","[u'left', u'middle', u'right']","[0.9, 0.5, 0.1]","[u'medium', u'high', u'low']","black",50,"middle","high","True","False",96,2100,NA
"A2ZRL1ZWWXJ0L7","Thu Oct 01 2020 12:30:12 GMT-0700 (Mountain Standard Time)","Thu Oct 01 2020 12:37:15 GMT-0700 (Mountain Standard Time)","Mozilla/5.0 (Windows NT 10.0; Win64; x64; rv:81.0) Gecko/20100101 Firefox/81.0",46,"[0.9, 0.5, 0.1]","[0.8, 0.4, 0.2]","[u'blue', u'black', u'red']","[u'left', u'middle', u'right']","[0.9, 0.5, 0.1]","[u'medium', u'high', u'low']","black",50,"middle","high","True","False",223,2200,NA
"A2ZRL1ZWWXJ0L7","Thu Oct 01 2020 12:30:12 GMT-0700 (Mountain Standard Time)","Thu Oct 01 2020 12:37:15 GMT-0700 (Mountain Standard Time)","Mozilla/5.0 (Windows NT 10.0; Win64; x64; rv:81.0) Gecko/20100101 Firefox/81.0",47,"[0.9, 0.5, 0.1]","[0.8, 0.4, 0.2]","[u'blue', u'black', u'red']","[u'left', u'middle', u'right']","[0.9, 0.5, 0.1]","[u'medium', u'high', u'low']","black",50,"middle","high","True","False",287,2300,NA
"A2ZRL1ZWWXJ0L7","Thu Oct 01 2020 12:30:12 GMT-0700 (Mountain Standard Time)","Thu Oct 01 2020 12:37:15 GMT-0700 (Mountain Standard Time)","Mozilla/5.0 (Windows NT 10.0; Win64; x64; rv:81.0) Gecko/20100101 Firefox/81.0",48,"[0.9, 0.5, 0.1]","[0.8, 0.4, 0.2]","[u'blue', u'black', u'red']","[u'left', u'middle', u'right']","[0.9, 0.5, 0.1]","[u'medium', u'high', u'low']","black",50,"middle","high","False","False",326,2250,NA
"A2ZRL1ZWWXJ0L7","Thu Oct 01 2020 12:30:12 GMT-0700 (Mountain Standard Time)","Thu Oct 01 2020 12:37:15 GMT-0700 (Mountain Standard Time)","Mozilla/5.0 (Windows NT 10.0; Win64; x64; rv:81.0) Gecko/20100101 Firefox/81.0",49,"[0.9, 0.5, 0.1]","[0.8, 0.4, 0.2]","[u'blue', u'black', u'red']","[u'left', u'middle', u'right']","[0.9, 0.5, 0.1]","[u'medium', u'high', u'low']","red",51,"right","low","True","False",123,2350,NA
"A2ZRL1ZWWXJ0L7","Thu Oct 01 2020 12:30:12 GMT-0700 (Mountain Standard Time)","Thu Oct 01 2020 12:37:15 GMT-0700 (Mountain Standard Time)","Mozilla/5.0 (Windows NT 10.0; Win64; x64; rv:81.0) Gecko/20100101 Firefox/81.0",50,"[0.9, 0.5, 0.1]","[0.8, 0.4, 0.2]","[u'blue', u'black', u'red']","[u'left', u'middle', u'right']","[0.9, 0.5, 0.1]","[u'medium', u'high', u'low']","red",51,"right","low","False","False",273,2300,NA
"A2ZRL1ZWWXJ0L7","Thu Oct 01 2020 12:30:12 GMT-0700 (Mountain Standard Time)","Thu Oct 01 2020 12:37:15 GMT-0700 (Mountain Standard Time)","Mozilla/5.0 (Windows NT 10.0; Win64; x64; rv:81.0) Gecko/20100101 Firefox/81.0",51,"[0.9, 0.5, 0.1]","[0.8, 0.4, 0.2]","[u'blue', u'black', u'red']","[u'left', u'middle', u'right']","[0.9, 0.5, 0.1]","[u'medium', u'high', u'low']","blue",49,"left","medium","False","False",61,2250,NA
"A2ZRL1ZWWXJ0L7","Thu Oct 01 2020 12:30:12 GMT-0700 (Mountain Standard Time)","Thu Oct 01 2020 12:37:15 GMT-0700 (Mountain Standard Time)","Mozilla/5.0 (Windows NT 10.0; Win64; x64; rv:81.0) Gecko/20100101 Firefox/81.0",52,"[0.9, 0.5, 0.1]","[0.8, 0.4, 0.2]","[u'blue', u'black', u'red']","[u'left', u'middle', u'right']","[0.9, 0.5, 0.1]","[u'medium', u'high', u'low']","black",50,"middle","high","True","False",40,2350,NA
"A2ZRL1ZWWXJ0L7","Thu Oct 01 2020 12:30:12 GMT-0700 (Mountain Standard Time)","Thu Oct 01 2020 12:37:15 GMT-0700 (Mountain Standard Time)","Mozilla/5.0 (Windows NT 10.0; Win64; x64; rv:81.0) Gecko/20100101 Firefox/81.0",53,"[0.9, 0.5, 0.1]","[0.8, 0.4, 0.2]","[u'blue', u'black', u'red']","[u'left', u'middle', u'right']","[0.9, 0.5, 0.1]","[u'medium', u'high', u'low']","black",50,"middle","high","True","False",239,2450,NA
"A2ZRL1ZWWXJ0L7","Thu Oct 01 2020 12:30:12 GMT-0700 (Mountain Standard Time)","Thu Oct 01 2020 12:37:15 GMT-0700 (Mountain Standard Time)","Mozilla/5.0 (Windows NT 10.0; Win64; x64; rv:81.0) Gecko/20100101 Firefox/81.0",54,"[0.9, 0.5, 0.1]","[0.8, 0.4, 0.2]","[u'blue', u'black', u'red']","[u'left', u'middle', u'right']","[0.9, 0.5, 0.1]","[u'medium', u'high', u'low']","black",50,"middle","high","True","False",617,2550,NA
"A2ZRL1ZWWXJ0L7","Thu Oct 01 2020 12:30:12 GMT-0700 (Mountain Standard Time)","Thu Oct 01 2020 12:37:15 GMT-0700 (Mountain Standard Time)","Mozilla/5.0 (Windows NT 10.0; Win64; x64; rv:81.0) Gecko/20100101 Firefox/81.0",55,"[0.9, 0.5, 0.1]","[0.8, 0.4, 0.2]","[u'blue', u'black', u'red']","[u'left', u'middle', u'right']","[0.9, 0.5, 0.1]","[u'medium', u'high', u'low']","black",50,"middle","high","True","False",505,2650,NA
"A2ZRL1ZWWXJ0L7","Thu Oct 01 2020 12:30:12 GMT-0700 (Mountain Standard Time)","Thu Oct 01 2020 12:37:15 GMT-0700 (Mountain Standard Time)","Mozilla/5.0 (Windows NT 10.0; Win64; x64; rv:81.0) Gecko/20100101 Firefox/81.0",56,"[0.9, 0.5, 0.1]","[0.8, 0.4, 0.2]","[u'blue', u'black', u'red']","[u'left', u'middle', u'right']","[0.9, 0.5, 0.1]","[u'medium', u'high', u'low']","black",50,"middle","high","True","False",287,2750,NA
"A2ZRL1ZWWXJ0L7","Thu Oct 01 2020 12:30:12 GMT-0700 (Mountain Standard Time)","Thu Oct 01 2020 12:37:15 GMT-0700 (Mountain Standard Time)","Mozilla/5.0 (Windows NT 10.0; Win64; x64; rv:81.0) Gecko/20100101 Firefox/81.0",57,"[0.9, 0.5, 0.1]","[0.8, 0.4, 0.2]","[u'blue', u'black', u'red']","[u'left', u'middle', u'right']","[0.9, 0.5, 0.1]","[u'medium', u'high', u'low']","black",50,"middle","high","True","False",424,2850,NA
"A2ZRL1ZWWXJ0L7","Thu Oct 01 2020 12:30:12 GMT-0700 (Mountain Standard Time)","Thu Oct 01 2020 12:37:15 GMT-0700 (Mountain Standard Time)","Mozilla/5.0 (Windows NT 10.0; Win64; x64; rv:81.0) Gecko/20100101 Firefox/81.0",58,"[0.9, 0.5, 0.1]","[0.8, 0.4, 0.2]","[u'blue', u'black', u'red']","[u'left', u'middle', u'right']","[0.9, 0.5, 0.1]","[u'medium', u'high', u'low']","black",50,"middle","high","True","False",546,2950,NA
"A2ZRL1ZWWXJ0L7","Thu Oct 01 2020 12:30:12 GMT-0700 (Mountain Standard Time)","Thu Oct 01 2020 12:37:15 GMT-0700 (Mountain Standard Time)","Mozilla/5.0 (Windows NT 10.0; Win64; x64; rv:81.0) Gecko/20100101 Firefox/81.0",59,"[0.9, 0.5, 0.1]","[0.8, 0.4, 0.2]","[u'blue', u'black', u'red']","[u'left', u'middle', u'right']","[0.9, 0.5, 0.1]","[u'medium', u'high', u'low']","black",50,"middle","high","True","False",373,3050,NA
"A2ZRL1ZWWXJ0L7","Thu Oct 01 2020 12:30:12 GMT-0700 (Mountain Standard Time)","Thu Oct 01 2020 12:37:15 GMT-0700 (Mountain Standard Time)","Mozilla/5.0 (Windows NT 10.0; Win64; x64; rv:81.0) Gecko/20100101 Firefox/81.0",60,"[0.9, 0.5, 0.1]","[0.8, 0.4, 0.2]","[u'blue', u'black', u'red']","[u'left', u'middle', u'right']","[0.9, 0.5, 0.1]","[u'medium', u'high', u'low']","black",50,"middle","high","True","True",507,3150,NA
"A2ZRL1ZWWXJ0L7","Thu Oct 01 2020 12:30:12 GMT-0700 (Mountain Standard Time)","Thu Oct 01 2020 12:37:15 GMT-0700 (Mountain Standard Time)","Mozilla/5.0 (Windows NT 10.0; Win64; x64; rv:81.0) Gecko/20100101 Firefox/81.0",61,"[0.9, 0.5, 0.1]","[0.8, 0.4, 0.2]","[u'blue', u'black', u'red']","[u'left', u'middle', u'right']","[0.9, 0.5, 0.1]","[u'high', u'low', u'medium']","black",50,"middle","low","False","False",539,3100,NA
"A2ZRL1ZWWXJ0L7","Thu Oct 01 2020 12:30:12 GMT-0700 (Mountain Standard Time)","Thu Oct 01 2020 12:37:15 GMT-0700 (Mountain Standard Time)","Mozilla/5.0 (Windows NT 10.0; Win64; x64; rv:81.0) Gecko/20100101 Firefox/81.0",62,"[0.9, 0.5, 0.1]","[0.8, 0.4, 0.2]","[u'blue', u'black', u'red']","[u'left', u'middle', u'right']","[0.9, 0.5, 0.1]","[u'high', u'low', u'medium']","blue",49,"left","high","True","False",340,3200,NA
"A2ZRL1ZWWXJ0L7","Thu Oct 01 2020 12:30:12 GMT-0700 (Mountain Standard Time)","Thu Oct 01 2020 12:37:15 GMT-0700 (Mountain Standard Time)","Mozilla/5.0 (Windows NT 10.0; Win64; x64; rv:81.0) Gecko/20100101 Firefox/81.0",63,"[0.9, 0.5, 0.1]","[0.8, 0.4, 0.2]","[u'blue', u'black', u'red']","[u'left', u'middle', u'right']","[0.9, 0.5, 0.1]","[u'high', u'low', u'medium']","blue",49,"left","high","True","False",478,3300,NA
"A2ZRL1ZWWXJ0L7","Thu Oct 01 2020 12:30:12 GMT-0700 (Mountain Standard Time)","Thu Oct 01 2020 12:37:15 GMT-0700 (Mountain Standard Time)","Mozilla/5.0 (Windows NT 10.0; Win64; x64; rv:81.0) Gecko/20100101 Firefox/81.0",64,"[0.9, 0.5, 0.1]","[0.8, 0.4, 0.2]","[u'blue', u'black', u'red']","[u'left', u'middle', u'right']","[0.9, 0.5, 0.1]","[u'high', u'low', u'medium']","blue",49,"left","high","True","False",370,3400,NA
"A2ZRL1ZWWXJ0L7","Thu Oct 01 2020 12:30:12 GMT-0700 (Mountain Standard Time)","Thu Oct 01 2020 12:37:15 GMT-0700 (Mountain Standard Time)","Mozilla/5.0 (Windows NT 10.0; Win64; x64; rv:81.0) Gecko/20100101 Firefox/81.0",65,"[0.9, 0.5, 0.1]","[0.8, 0.4, 0.2]","[u'blue', u'black', u'red']","[u'left', u'middle', u'right']","[0.9, 0.5, 0.1]","[u'high', u'low', u'medium']","blue",49,"left","high","False","False",315,3350,NA
"A2ZRL1ZWWXJ0L7","Thu Oct 01 2020 12:30:12 GMT-0700 (Mountain Standard Time)","Thu Oct 01 2020 12:37:15 GMT-0700 (Mountain Standard Time)","Mozilla/5.0 (Windows NT 10.0; Win64; x64; rv:81.0) Gecko/20100101 Firefox/81.0",66,"[0.9, 0.5, 0.1]","[0.8, 0.4, 0.2]","[u'blue', u'black', u'red']","[u'left', u'middle', u'right']","[0.9, 0.5, 0.1]","[u'high', u'low', u'medium']","red",51,"right","medium","False","False",178,3300,NA
"A2ZRL1ZWWXJ0L7","Thu Oct 01 2020 12:30:12 GMT-0700 (Mountain Standard Time)","Thu Oct 01 2020 12:37:15 GMT-0700 (Mountain Standard Time)","Mozilla/5.0 (Windows NT 10.0; Win64; x64; rv:81.0) Gecko/20100101 Firefox/81.0",67,"[0.9, 0.5, 0.1]","[0.8, 0.4, 0.2]","[u'blue', u'black', u'red']","[u'left', u'middle', u'right']","[0.9, 0.5, 0.1]","[u'high', u'low', u'medium']","black",50,"middle","low","False","False",238,3250,NA
"A2ZRL1ZWWXJ0L7","Thu Oct 01 2020 12:30:12 GMT-0700 (Mountain Standard Time)","Thu Oct 01 2020 12:37:15 GMT-0700 (Mountain Standard Time)","Mozilla/5.0 (Windows NT 10.0; Win64; x64; rv:81.0) Gecko/20100101 Firefox/81.0",68,"[0.9, 0.5, 0.1]","[0.8, 0.4, 0.2]","[u'blue', u'black', u'red']","[u'left', u'middle', u'right']","[0.9, 0.5, 0.1]","[u'high', u'low', u'medium']","blue",49,"left","high","True","False",381,3350,NA
"A2ZRL1ZWWXJ0L7","Thu Oct 01 2020 12:30:12 GMT-0700 (Mountain Standard Time)","Thu Oct 01 2020 12:37:15 GMT-0700 (Mountain Standard Time)","Mozilla/5.0 (Windows NT 10.0; Win64; x64; rv:81.0) Gecko/20100101 Firefox/81.0",69,"[0.9, 0.5, 0.1]","[0.8, 0.4, 0.2]","[u'blue', u'black', u'red']","[u'left', u'middle', u'right']","[0.9, 0.5, 0.1]","[u'high', u'low', u'medium']","blue",49,"left","high","True","False",284,3450,NA
"A2ZRL1ZWWXJ0L7","Thu Oct 01 2020 12:30:12 GMT-0700 (Mountain Standard Time)","Thu Oct 01 2020 12:37:15 GMT-0700 (Mountain Standard Time)","Mozilla/5.0 (Windows NT 10.0; Win64; x64; rv:81.0) Gecko/20100101 Firefox/81.0",70,"[0.9, 0.5, 0.1]","[0.8, 0.4, 0.2]","[u'blue', u'black', u'red']","[u'left', u'middle', u'right']","[0.9, 0.5, 0.1]","[u'high', u'low', u'medium']","blue",49,"left","high","True","False",239,3550,NA
"A2ZRL1ZWWXJ0L7","Thu Oct 01 2020 12:30:12 GMT-0700 (Mountain Standard Time)","Thu Oct 01 2020 12:37:15 GMT-0700 (Mountain Standard Time)","Mozilla/5.0 (Windows NT 10.0; Win64; x64; rv:81.0) Gecko/20100101 Firefox/81.0",71,"[0.9, 0.5, 0.1]","[0.8, 0.4, 0.2]","[u'blue', u'black', u'red']","[u'left', u'middle', u'right']","[0.9, 0.5, 0.1]","[u'high', u'low', u'medium']","blue",49,"left","high","True","False",301,3650,NA
"A2ZRL1ZWWXJ0L7","Thu Oct 01 2020 12:30:12 GMT-0700 (Mountain Standard Time)","Thu Oct 01 2020 12:37:15 GMT-0700 (Mountain Standard Time)","Mozilla/5.0 (Windows NT 10.0; Win64; x64; rv:81.0) Gecko/20100101 Firefox/81.0",72,"[0.9, 0.5, 0.1]","[0.8, 0.4, 0.2]","[u'blue', u'black', u'red']","[u'left', u'middle', u'right']","[0.9, 0.5, 0.1]","[u'high', u'low', u'medium']","blue",49,"left","high","True","False",403,3750,NA
"A2ZRL1ZWWXJ0L7","Thu Oct 01 2020 12:30:12 GMT-0700 (Mountain Standard Time)","Thu Oct 01 2020 12:37:15 GMT-0700 (Mountain Standard Time)","Mozilla/5.0 (Windows NT 10.0; Win64; x64; rv:81.0) Gecko/20100101 Firefox/81.0",73,"[0.9, 0.5, 0.1]","[0.8, 0.4, 0.2]","[u'blue', u'black', u'red']","[u'left', u'middle', u'right']","[0.9, 0.5, 0.1]","[u'high', u'low', u'medium']","blue",49,"left","high","True","False",190,3850,NA
"A2ZRL1ZWWXJ0L7","Thu Oct 01 2020 12:30:12 GMT-0700 (Mountain Standard Time)","Thu Oct 01 2020 12:37:15 GMT-0700 (Mountain Standard Time)","Mozilla/5.0 (Windows NT 10.0; Win64; x64; rv:81.0) Gecko/20100101 Firefox/81.0",74,"[0.9, 0.5, 0.1]","[0.8, 0.4, 0.2]","[u'blue', u'black', u'red']","[u'left', u'middle', u'right']","[0.9, 0.5, 0.1]","[u'high', u'low', u'medium']","blue",49,"left","high","True","False",236,3950,NA
"A2ZRL1ZWWXJ0L7","Thu Oct 01 2020 12:30:12 GMT-0700 (Mountain Standard Time)","Thu Oct 01 2020 12:37:15 GMT-0700 (Mountain Standard Time)","Mozilla/5.0 (Windows NT 10.0; Win64; x64; rv:81.0) Gecko/20100101 Firefox/81.0",75,"[0.9, 0.5, 0.1]","[0.8, 0.4, 0.2]","[u'blue', u'black', u'red']","[u'left', u'middle', u'right']","[0.9, 0.5, 0.1]","[u'high', u'low', u'medium']","blue",49,"left","high","True","False",287,4050,NA
"A2ZRL1ZWWXJ0L7","Thu Oct 01 2020 12:30:12 GMT-0700 (Mountain Standard Time)","Thu Oct 01 2020 12:37:15 GMT-0700 (Mountain Standard Time)","Mozilla/5.0 (Windows NT 10.0; Win64; x64; rv:81.0) Gecko/20100101 Firefox/81.0",76,"[0.9, 0.5, 0.1]","[0.8, 0.4, 0.2]","[u'blue', u'black', u'red']","[u'left', u'middle', u'right']","[0.9, 0.5, 0.1]","[u'high', u'low', u'medium']","blue",49,"left","high","True","True",297,4150,NA
"A2ZRL1ZWWXJ0L7","Thu Oct 01 2020 12:30:12 GMT-0700 (Mountain Standard Time)","Thu Oct 01 2020 12:37:15 GMT-0700 (Mountain Standard Time)","Mozilla/5.0 (Windows NT 10.0; Win64; x64; rv:81.0) Gecko/20100101 Firefox/81.0",77,"[0.9, 0.5, 0.1]","[0.8, 0.4, 0.2]","[u'blue', u'black', u'red']","[u'left', u'middle', u'right']","[0.9, 0.5, 0.1]","[u'medium', u'high', u'low']","blue",49,"left","medium","False","False",343,4100,NA
"A2ZRL1ZWWXJ0L7","Thu Oct 01 2020 12:30:12 GMT-0700 (Mountain Standard Time)","Thu Oct 01 2020 12:37:15 GMT-0700 (Mountain Standard Time)","Mozilla/5.0 (Windows NT 10.0; Win64; x64; rv:81.0) Gecko/20100101 Firefox/81.0",78,"[0.9, 0.5, 0.1]","[0.8, 0.4, 0.2]","[u'blue', u'black', u'red']","[u'left', u'middle', u'right']","[0.9, 0.5, 0.1]","[u'medium', u'high', u'low']","red",51,"right","low","False","False",414,4050,NA
"A2ZRL1ZWWXJ0L7","Thu Oct 01 2020 12:30:12 GMT-0700 (Mountain Standard Time)","Thu Oct 01 2020 12:37:15 GMT-0700 (Mountain Standard Time)","Mozilla/5.0 (Windows NT 10.0; Win64; x64; rv:81.0) Gecko/20100101 Firefox/81.0",79,"[0.9, 0.5, 0.1]","[0.8, 0.4, 0.2]","[u'blue', u'black', u'red']","[u'left', u'middle', u'right']","[0.9, 0.5, 0.1]","[u'medium', u'high', u'low']","black",50,"middle","high","True","False",239,4150,NA
"A2ZRL1ZWWXJ0L7","Thu Oct 01 2020 12:30:12 GMT-0700 (Mountain Standard Time)","Thu Oct 01 2020 12:37:15 GMT-0700 (Mountain Standard Time)","Mozilla/5.0 (Windows NT 10.0; Win64; x64; rv:81.0) Gecko/20100101 Firefox/81.0",80,"[0.9, 0.5, 0.1]","[0.8, 0.4, 0.2]","[u'blue', u'black', u'red']","[u'left', u'middle', u'right']","[0.9, 0.5, 0.1]","[u'medium', u'high', u'low']","black",50,"middle","high","True","False",248,4250,NA
"A2ZRL1ZWWXJ0L7","Thu Oct 01 2020 12:30:12 GMT-0700 (Mountain Standard Time)","Thu Oct 01 2020 12:37:15 GMT-0700 (Mountain Standard Time)","Mozilla/5.0 (Windows NT 10.0; Win64; x64; rv:81.0) Gecko/20100101 Firefox/81.0",81,"[0.9, 0.5, 0.1]","[0.8, 0.4, 0.2]","[u'blue', u'black', u'red']","[u'left', u'middle', u'right']","[0.8, 0.4, 0.2]","[u'low', u'medium', u'high']","blue",49,"left","low","True","False",358,4350,NA
"A2ZRL1ZWWXJ0L7","Thu Oct 01 2020 12:30:12 GMT-0700 (Mountain Standard Time)","Thu Oct 01 2020 12:37:15 GMT-0700 (Mountain Standard Time)","Mozilla/5.0 (Windows NT 10.0; Win64; x64; rv:81.0) Gecko/20100101 Firefox/81.0",82,"[0.9, 0.5, 0.1]","[0.8, 0.4, 0.2]","[u'blue', u'black', u'red']","[u'left', u'middle', u'right']","[0.8, 0.4, 0.2]","[u'low', u'medium', u'high']","blue",49,"left","low","False","False",273,4300,NA
"A2ZRL1ZWWXJ0L7","Thu Oct 01 2020 12:30:12 GMT-0700 (Mountain Standard Time)","Thu Oct 01 2020 12:37:15 GMT-0700 (Mountain Standard Time)","Mozilla/5.0 (Windows NT 10.0; Win64; x64; rv:81.0) Gecko/20100101 Firefox/81.0",83,"[0.9, 0.5, 0.1]","[0.8, 0.4, 0.2]","[u'blue', u'black', u'red']","[u'left', u'middle', u'right']","[0.8, 0.4, 0.2]","[u'low', u'medium', u'high']","black",50,"middle","medium","True","False",309,4400,NA
"A2ZRL1ZWWXJ0L7","Thu Oct 01 2020 12:30:12 GMT-0700 (Mountain Standard Time)","Thu Oct 01 2020 12:37:15 GMT-0700 (Mountain Standard Time)","Mozilla/5.0 (Windows NT 10.0; Win64; x64; rv:81.0) Gecko/20100101 Firefox/81.0",84,"[0.9, 0.5, 0.1]","[0.8, 0.4, 0.2]","[u'blue', u'black', u'red']","[u'left', u'middle', u'right']","[0.8, 0.4, 0.2]","[u'low', u'medium', u'high']","black",50,"middle","medium","False","False",323,4350,NA
"A2ZRL1ZWWXJ0L7","Thu Oct 01 2020 12:30:12 GMT-0700 (Mountain Standard Time)","Thu Oct 01 2020 12:37:15 GMT-0700 (Mountain Standard Time)","Mozilla/5.0 (Windows NT 10.0; Win64; x64; rv:81.0) Gecko/20100101 Firefox/81.0",85,"[0.9, 0.5, 0.1]","[0.8, 0.4, 0.2]","[u'blue', u'black', u'red']","[u'left', u'middle', u'right']","[0.8, 0.4, 0.2]","[u'low', u'medium', u'high']","blue",49,"left","low","False","False",244,4300,NA
"A2ZRL1ZWWXJ0L7","Thu Oct 01 2020 12:30:12 GMT-0700 (Mountain Standard Time)","Thu Oct 01 2020 12:37:15 GMT-0700 (Mountain Standard Time)","Mozilla/5.0 (Windows NT 10.0; Win64; x64; rv:81.0) Gecko/20100101 Firefox/81.0",86,"[0.9, 0.5, 0.1]","[0.8, 0.4, 0.2]","[u'blue', u'black', u'red']","[u'left', u'middle', u'right']","[0.8, 0.4, 0.2]","[u'low', u'medium', u'high']","red",51,"right","high","True","False",219,4400,NA
"A2ZRL1ZWWXJ0L7","Thu Oct 01 2020 12:30:12 GMT-0700 (Mountain Standard Time)","Thu Oct 01 2020 12:37:15 GMT-0700 (Mountain Standard Time)","Mozilla/5.0 (Windows NT 10.0; Win64; x64; rv:81.0) Gecko/20100101 Firefox/81.0",87,"[0.9, 0.5, 0.1]","[0.8, 0.4, 0.2]","[u'blue', u'black', u'red']","[u'left', u'middle', u'right']","[0.8, 0.4, 0.2]","[u'low', u'medium', u'high']","red",51,"right","high","True","False",324,4500,NA
"A2ZRL1ZWWXJ0L7","Thu Oct 01 2020 12:30:12 GMT-0700 (Mountain Standard Time)","Thu Oct 01 2020 12:37:15 GMT-0700 (Mountain Standard Time)","Mozilla/5.0 (Windows NT 10.0; Win64; x64; rv:81.0) Gecko/20100101 Firefox/81.0",88,"[0.9, 0.5, 0.1]","[0.8, 0.4, 0.2]","[u'blue', u'black', u'red']","[u'left', u'middle', u'right']","[0.8, 0.4, 0.2]","[u'low', u'medium', u'high']","red",51,"right","high","True","False",269,4600,NA
"A2ZRL1ZWWXJ0L7","Thu Oct 01 2020 12:30:12 GMT-0700 (Mountain Standard Time)","Thu Oct 01 2020 12:37:15 GMT-0700 (Mountain Standard Time)","Mozilla/5.0 (Windows NT 10.0; Win64; x64; rv:81.0) Gecko/20100101 Firefox/81.0",89,"[0.9, 0.5, 0.1]","[0.8, 0.4, 0.2]","[u'blue', u'black', u'red']","[u'left', u'middle', u'right']","[0.8, 0.4, 0.2]","[u'low', u'medium', u'high']","red",51,"right","high","True","False",361,4700,NA
"A2ZRL1ZWWXJ0L7","Thu Oct 01 2020 12:30:12 GMT-0700 (Mountain Standard Time)","Thu Oct 01 2020 12:37:15 GMT-0700 (Mountain Standard Time)","Mozilla/5.0 (Windows NT 10.0; Win64; x64; rv:81.0) Gecko/20100101 Firefox/81.0",90,"[0.9, 0.5, 0.1]","[0.8, 0.4, 0.2]","[u'blue', u'black', u'red']","[u'left', u'middle', u'right']","[0.8, 0.4, 0.2]","[u'low', u'medium', u'high']","red",51,"right","high","True","False",335,4800,NA
"A2ZRL1ZWWXJ0L7","Thu Oct 01 2020 12:30:12 GMT-0700 (Mountain Standard Time)","Thu Oct 01 2020 12:37:15 GMT-0700 (Mountain Standard Time)","Mozilla/5.0 (Windows NT 10.0; Win64; x64; rv:81.0) Gecko/20100101 Firefox/81.0",91,"[0.9, 0.5, 0.1]","[0.8, 0.4, 0.2]","[u'blue', u'black', u'red']","[u'left', u'middle', u'right']","[0.8, 0.4, 0.2]","[u'low', u'medium', u'high']","red",51,"right","high","True","False",298,4900,NA
"A2ZRL1ZWWXJ0L7","Thu Oct 01 2020 12:30:12 GMT-0700 (Mountain Standard Time)","Thu Oct 01 2020 12:37:15 GMT-0700 (Mountain Standard Time)","Mozilla/5.0 (Windows NT 10.0; Win64; x64; rv:81.0) Gecko/20100101 Firefox/81.0",92,"[0.9, 0.5, 0.1]","[0.8, 0.4, 0.2]","[u'blue', u'black', u'red']","[u'left', u'middle', u'right']","[0.8, 0.4, 0.2]","[u'low', u'medium', u'high']","red",51,"right","high","True","False",252,5000,NA
"A2ZRL1ZWWXJ0L7","Thu Oct 01 2020 12:30:12 GMT-0700 (Mountain Standard Time)","Thu Oct 01 2020 12:37:15 GMT-0700 (Mountain Standard Time)","Mozilla/5.0 (Windows NT 10.0; Win64; x64; rv:81.0) Gecko/20100101 Firefox/81.0",93,"[0.9, 0.5, 0.1]","[0.8, 0.4, 0.2]","[u'blue', u'black', u'red']","[u'left', u'middle', u'right']","[0.8, 0.4, 0.2]","[u'low', u'medium', u'high']","red",51,"right","high","True","False",284,5100,NA
"A2ZRL1ZWWXJ0L7","Thu Oct 01 2020 12:30:12 GMT-0700 (Mountain Standard Time)","Thu Oct 01 2020 12:37:15 GMT-0700 (Mountain Standard Time)","Mozilla/5.0 (Windows NT 10.0; Win64; x64; rv:81.0) Gecko/20100101 Firefox/81.0",94,"[0.9, 0.5, 0.1]","[0.8, 0.4, 0.2]","[u'blue', u'black', u'red']","[u'left', u'middle', u'right']","[0.8, 0.4, 0.2]","[u'low', u'medium', u'high']","red",51,"right","high","True","True",281,5200,NA
"A2ZRL1ZWWXJ0L7","Thu Oct 01 2020 12:30:12 GMT-0700 (Mountain Standard Time)","Thu Oct 01 2020 12:37:15 GMT-0700 (Mountain Standard Time)","Mozilla/5.0 (Windows NT 10.0; Win64; x64; rv:81.0) Gecko/20100101 Firefox/81.0",95,"[0.9, 0.5, 0.1]","[0.8, 0.4, 0.2]","[u'blue', u'black', u'red']","[u'left', u'middle', u'right']","[0.8, 0.4, 0.2]","[u'medium', u'high', u'low']","red",51,"right","low","False","False",463,5150,NA
"A2ZRL1ZWWXJ0L7","Thu Oct 01 2020 12:30:12 GMT-0700 (Mountain Standard Time)","Thu Oct 01 2020 12:37:15 GMT-0700 (Mountain Standard Time)","Mozilla/5.0 (Windows NT 10.0; Win64; x64; rv:81.0) Gecko/20100101 Firefox/81.0",96,"[0.9, 0.5, 0.1]","[0.8, 0.4, 0.2]","[u'blue', u'black', u'red']","[u'left', u'middle', u'right']","[0.8, 0.4, 0.2]","[u'medium', u'high', u'low']","black",50,"middle","high","True","False",157,5250,NA
"A2ZRL1ZWWXJ0L7","Thu Oct 01 2020 12:30:12 GMT-0700 (Mountain Standard Time)","Thu Oct 01 2020 12:37:15 GMT-0700 (Mountain Standard Time)","Mozilla/5.0 (Windows NT 10.0; Win64; x64; rv:81.0) Gecko/20100101 Firefox/81.0",97,"[0.9, 0.5, 0.1]","[0.8, 0.4, 0.2]","[u'blue', u'black', u'red']","[u'left', u'middle', u'right']","[0.8, 0.4, 0.2]","[u'medium', u'high', u'low']","black",50,"middle","high","False","False",326,5200,NA
"A2ZRL1ZWWXJ0L7","Thu Oct 01 2020 12:30:12 GMT-0700 (Mountain Standard Time)","Thu Oct 01 2020 12:37:15 GMT-0700 (Mountain Standard Time)","Mozilla/5.0 (Windows NT 10.0; Win64; x64; rv:81.0) Gecko/20100101 Firefox/81.0",98,"[0.9, 0.5, 0.1]","[0.8, 0.4, 0.2]","[u'blue', u'black', u'red']","[u'left', u'middle', u'right']","[0.8, 0.4, 0.2]","[u'medium', u'high', u'low']","blue",49,"left","medium","False","False",443,5150,NA
"A2ZRL1ZWWXJ0L7","Thu Oct 01 2020 12:30:12 GMT-0700 (Mountain Standard Time)","Thu Oct 01 2020 12:37:15 GMT-0700 (Mountain Standard Time)","Mozilla/5.0 (Windows NT 10.0; Win64; x64; rv:81.0) Gecko/20100101 Firefox/81.0",99,"[0.9, 0.5, 0.1]","[0.8, 0.4, 0.2]","[u'blue', u'black', u'red']","[u'left', u'middle', u'right']","[0.8, 0.4, 0.2]","[u'medium', u'high', u'low']","blue",49,"left","medium","False","False",1280,5100,NA
"A2ZRL1ZWWXJ0L7","Thu Oct 01 2020 12:30:12 GMT-0700 (Mountain Standard Time)","Thu Oct 01 2020 12:37:15 GMT-0700 (Mountain Standard Time)","Mozilla/5.0 (Windows NT 10.0; Win64; x64; rv:81.0) Gecko/20100101 Firefox/81.0",100,"[0.9, 0.5, 0.1]","[0.8, 0.4, 0.2]","[u'blue', u'black', u'red']","[u'left', u'middle', u'right']","[0.8, 0.4, 0.2]","[u'medium', u'high', u'low']","black",50,"middle","high","True","False",333,5200,NA
"A2ZRL1ZWWXJ0L7","Thu Oct 01 2020 12:30:12 GMT-0700 (Mountain Standard Time)","Thu Oct 01 2020 12:37:15 GMT-0700 (Mountain Standard Time)","Mozilla/5.0 (Windows NT 10.0; Win64; x64; rv:81.0) Gecko/20100101 Firefox/81.0",101,"[0.9, 0.5, 0.1]","[0.8, 0.4, 0.2]","[u'blue', u'black', u'red']","[u'left', u'middle', u'right']","[0.8, 0.4, 0.2]","[u'medium', u'high', u'low']","black",50,"middle","high","True","False",1050,5300,NA
"A2ZRL1ZWWXJ0L7","Thu Oct 01 2020 12:30:12 GMT-0700 (Mountain Standard Time)","Thu Oct 01 2020 12:37:15 GMT-0700 (Mountain Standard Time)","Mozilla/5.0 (Windows NT 10.0; Win64; x64; rv:81.0) Gecko/20100101 Firefox/81.0",102,"[0.9, 0.5, 0.1]","[0.8, 0.4, 0.2]","[u'blue', u'black', u'red']","[u'left', u'middle', u'right']","[0.8, 0.4, 0.2]","[u'medium', u'high', u'low']","black",50,"middle","high","False","False",265,5250,NA
"A2ZRL1ZWWXJ0L7","Thu Oct 01 2020 12:30:12 GMT-0700 (Mountain Standard Time)","Thu Oct 01 2020 12:37:15 GMT-0700 (Mountain Standard Time)","Mozilla/5.0 (Windows NT 10.0; Win64; x64; rv:81.0) Gecko/20100101 Firefox/81.0",103,"[0.9, 0.5, 0.1]","[0.8, 0.4, 0.2]","[u'blue', u'black', u'red']","[u'left', u'middle', u'right']","[0.8, 0.4, 0.2]","[u'medium', u'high', u'low']","blue",49,"left","medium","False","False",351,5200,NA
"A2ZRL1ZWWXJ0L7","Thu Oct 01 2020 12:30:12 GMT-0700 (Mountain Standard Time)","Thu Oct 01 2020 12:37:15 GMT-0700 (Mountain Standard Time)","Mozilla/5.0 (Windows NT 10.0; Win64; x64; rv:81.0) Gecko/20100101 Firefox/81.0",104,"[0.9, 0.5, 0.1]","[0.8, 0.4, 0.2]","[u'blue', u'black', u'red']","[u'left', u'middle', u'right']","[0.8, 0.4, 0.2]","[u'medium', u'high', u'low']","red",51,"right","low","False","False",339,5150,NA
"A2ZRL1ZWWXJ0L7","Thu Oct 01 2020 12:30:12 GMT-0700 (Mountain Standard Time)","Thu Oct 01 2020 12:37:15 GMT-0700 (Mountain Standard Time)","Mozilla/5.0 (Windows NT 10.0; Win64; x64; rv:81.0) Gecko/20100101 Firefox/81.0",105,"[0.9, 0.5, 0.1]","[0.8, 0.4, 0.2]","[u'blue', u'black', u'red']","[u'left', u'middle', u'right']","[0.8, 0.4, 0.2]","[u'medium', u'high', u'low']","black",50,"middle","high","True","False",83,5250,NA
"A2ZRL1ZWWXJ0L7","Thu Oct 01 2020 12:30:12 GMT-0700 (Mountain Standard Time)","Thu Oct 01 2020 12:37:15 GMT-0700 (Mountain Standard Time)","Mozilla/5.0 (Windows NT 10.0; Win64; x64; rv:81.0) Gecko/20100101 Firefox/81.0",106,"[0.9, 0.5, 0.1]","[0.8, 0.4, 0.2]","[u'blue', u'black', u'red']","[u'left', u'middle', u'right']","[0.8, 0.4, 0.2]","[u'medium', u'high', u'low']","black",50,"middle","high","True","False",274,5350,NA
"A2ZRL1ZWWXJ0L7","Thu Oct 01 2020 12:30:12 GMT-0700 (Mountain Standard Time)","Thu Oct 01 2020 12:37:15 GMT-0700 (Mountain Standard Time)","Mozilla/5.0 (Windows NT 10.0; Win64; x64; rv:81.0) Gecko/20100101 Firefox/81.0",107,"[0.9, 0.5, 0.1]","[0.8, 0.4, 0.2]","[u'blue', u'black', u'red']","[u'left', u'middle', u'right']","[0.8, 0.4, 0.2]","[u'medium', u'high', u'low']","black",50,"middle","high","True","False",399,5450,NA
"A2ZRL1ZWWXJ0L7","Thu Oct 01 2020 12:30:12 GMT-0700 (Mountain Standard Time)","Thu Oct 01 2020 12:37:15 GMT-0700 (Mountain Standard Time)","Mozilla/5.0 (Windows NT 10.0; Win64; x64; rv:81.0) Gecko/20100101 Firefox/81.0",108,"[0.9, 0.5, 0.1]","[0.8, 0.4, 0.2]","[u'blue', u'black', u'red']","[u'left', u'middle', u'right']","[0.8, 0.4, 0.2]","[u'medium', u'high', u'low']","black",50,"middle","high","True","False",321,5550,NA
"A2ZRL1ZWWXJ0L7","Thu Oct 01 2020 12:30:12 GMT-0700 (Mountain Standard Time)","Thu Oct 01 2020 12:37:15 GMT-0700 (Mountain Standard Time)","Mozilla/5.0 (Windows NT 10.0; Win64; x64; rv:81.0) Gecko/20100101 Firefox/81.0",109,"[0.9, 0.5, 0.1]","[0.8, 0.4, 0.2]","[u'blue', u'black', u'red']","[u'left', u'middle', u'right']","[0.8, 0.4, 0.2]","[u'medium', u'high', u'low']","black",50,"middle","high","True","False",127,5650,NA
"A2ZRL1ZWWXJ0L7","Thu Oct 01 2020 12:30:12 GMT-0700 (Mountain Standard Time)","Thu Oct 01 2020 12:37:15 GMT-0700 (Mountain Standard Time)","Mozilla/5.0 (Windows NT 10.0; Win64; x64; rv:81.0) Gecko/20100101 Firefox/81.0",110,"[0.9, 0.5, 0.1]","[0.8, 0.4, 0.2]","[u'blue', u'black', u'red']","[u'left', u'middle', u'right']","[0.8, 0.4, 0.2]","[u'medium', u'high', u'low']","black",50,"middle","high","True","False",149,5750,NA
"A2ZRL1ZWWXJ0L7","Thu Oct 01 2020 12:30:12 GMT-0700 (Mountain Standard Time)","Thu Oct 01 2020 12:37:15 GMT-0700 (Mountain Standard Time)","Mozilla/5.0 (Windows NT 10.0; Win64; x64; rv:81.0) Gecko/20100101 Firefox/81.0",111,"[0.9, 0.5, 0.1]","[0.8, 0.4, 0.2]","[u'blue', u'black', u'red']","[u'left', u'middle', u'right']","[0.8, 0.4, 0.2]","[u'medium', u'high', u'low']","black",50,"middle","high","True","False",175,5850,NA
"A2ZRL1ZWWXJ0L7","Thu Oct 01 2020 12:30:12 GMT-0700 (Mountain Standard Time)","Thu Oct 01 2020 12:37:15 GMT-0700 (Mountain Standard Time)","Mozilla/5.0 (Windows NT 10.0; Win64; x64; rv:81.0) Gecko/20100101 Firefox/81.0",112,"[0.9, 0.5, 0.1]","[0.8, 0.4, 0.2]","[u'blue', u'black', u'red']","[u'left', u'middle', u'right']","[0.8, 0.4, 0.2]","[u'medium', u'high', u'low']","black",50,"middle","high","True","False",248,5950,NA
"A2ZRL1ZWWXJ0L7","Thu Oct 01 2020 12:30:12 GMT-0700 (Mountain Standard Time)","Thu Oct 01 2020 12:37:15 GMT-0700 (Mountain Standard Time)","Mozilla/5.0 (Windows NT 10.0; Win64; x64; rv:81.0) Gecko/20100101 Firefox/81.0",113,"[0.9, 0.5, 0.1]","[0.8, 0.4, 0.2]","[u'blue', u'black', u'red']","[u'left', u'middle', u'right']","[0.8, 0.4, 0.2]","[u'medium', u'high', u'low']","black",50,"middle","high","True","True",294,6050,NA
"A2ZRL1ZWWXJ0L7","Thu Oct 01 2020 12:30:12 GMT-0700 (Mountain Standard Time)","Thu Oct 01 2020 12:37:15 GMT-0700 (Mountain Standard Time)","Mozilla/5.0 (Windows NT 10.0; Win64; x64; rv:81.0) Gecko/20100101 Firefox/81.0",114,"[0.9, 0.5, 0.1]","[0.8, 0.4, 0.2]","[u'blue', u'black', u'red']","[u'left', u'middle', u'right']","[0.8, 0.4, 0.2]","[u'low', u'medium', u'high']","black",50,"middle","medium","False","False",504,6000,NA
"A2ZRL1ZWWXJ0L7","Thu Oct 01 2020 12:30:12 GMT-0700 (Mountain Standard Time)","Thu Oct 01 2020 12:37:15 GMT-0700 (Mountain Standard Time)","Mozilla/5.0 (Windows NT 10.0; Win64; x64; rv:81.0) Gecko/20100101 Firefox/81.0",115,"[0.9, 0.5, 0.1]","[0.8, 0.4, 0.2]","[u'blue', u'black', u'red']","[u'left', u'middle', u'right']","[0.8, 0.4, 0.2]","[u'low', u'medium', u'high']","blue",49,"left","low","False","False",165,5950,NA
"A2ZRL1ZWWXJ0L7","Thu Oct 01 2020 12:30:12 GMT-0700 (Mountain Standard Time)","Thu Oct 01 2020 12:37:15 GMT-0700 (Mountain Standard Time)","Mozilla/5.0 (Windows NT 10.0; Win64; x64; rv:81.0) Gecko/20100101 Firefox/81.0",116,"[0.9, 0.5, 0.1]","[0.8, 0.4, 0.2]","[u'blue', u'black', u'red']","[u'left', u'middle', u'right']","[0.8, 0.4, 0.2]","[u'low', u'medium', u'high']","black",50,"middle","medium","True","False",44,6050,NA
"A2ZRL1ZWWXJ0L7","Thu Oct 01 2020 12:30:12 GMT-0700 (Mountain Standard Time)","Thu Oct 01 2020 12:37:15 GMT-0700 (Mountain Standard Time)","Mozilla/5.0 (Windows NT 10.0; Win64; x64; rv:81.0) Gecko/20100101 Firefox/81.0",117,"[0.9, 0.5, 0.1]","[0.8, 0.4, 0.2]","[u'blue', u'black', u'red']","[u'left', u'middle', u'right']","[0.8, 0.4, 0.2]","[u'low', u'medium', u'high']","black",50,"middle","medium","True","False",278,6150,NA
"A2ZRL1ZWWXJ0L7","Thu Oct 01 2020 12:30:12 GMT-0700 (Mountain Standard Time)","Thu Oct 01 2020 12:37:15 GMT-0700 (Mountain Standard Time)","Mozilla/5.0 (Windows NT 10.0; Win64; x64; rv:81.0) Gecko/20100101 Firefox/81.0",118,"[0.9, 0.5, 0.1]","[0.8, 0.4, 0.2]","[u'blue', u'black', u'red']","[u'left', u'middle', u'right']","[0.8, 0.4, 0.2]","[u'low', u'medium', u'high']","black",50,"middle","medium","False","False",411,6100,NA
"A2ZRL1ZWWXJ0L7","Thu Oct 01 2020 12:30:12 GMT-0700 (Mountain Standard Time)","Thu Oct 01 2020 12:37:15 GMT-0700 (Mountain Standard Time)","Mozilla/5.0 (Windows NT 10.0; Win64; x64; rv:81.0) Gecko/20100101 Firefox/81.0",119,"[0.9, 0.5, 0.1]","[0.8, 0.4, 0.2]","[u'blue', u'black', u'red']","[u'left', u'middle', u'right']","[0.8, 0.4, 0.2]","[u'low', u'medium', u'high']","red",51,"right","high","True","False",539,6200,NA
"A2ZRL1ZWWXJ0L7","Thu Oct 01 2020 12:30:12 GMT-0700 (Mountain Standard Time)","Thu Oct 01 2020 12:37:15 GMT-0700 (Mountain Standard Time)","Mozilla/5.0 (Windows NT 10.0; Win64; x64; rv:81.0) Gecko/20100101 Firefox/81.0",120,"[0.9, 0.5, 0.1]","[0.8, 0.4, 0.2]","[u'blue', u'black', u'red']","[u'left', u'middle', u'right']","[0.8, 0.4, 0.2]","[u'low', u'medium', u'high']","red",51,"right","high","False","False",323,6150,NA
"A2ZRL1ZWWXJ0L7","Thu Oct 01 2020 12:30:12 GMT-0700 (Mountain Standard Time)","Thu Oct 01 2020 12:37:15 GMT-0700 (Mountain Standard Time)","Mozilla/5.0 (Windows NT 10.0; Win64; x64; rv:81.0) Gecko/20100101 Firefox/81.0",121,"[0.9, 0.5, 0.1]","[0.8, 0.4, 0.2]","[u'blue', u'black', u'red']","[u'left', u'middle', u'right']","[0.8, 0.4, 0.2]","[u'medium', u'high', u'low']","black",50,"middle","high","True","False",400,6250,NA
"A2ZRL1ZWWXJ0L7","Thu Oct 01 2020 12:30:12 GMT-0700 (Mountain Standard Time)","Thu Oct 01 2020 12:37:15 GMT-0700 (Mountain Standard Time)","Mozilla/5.0 (Windows NT 10.0; Win64; x64; rv:81.0) Gecko/20100101 Firefox/81.0",122,"[0.9, 0.5, 0.1]","[0.8, 0.4, 0.2]","[u'blue', u'black', u'red']","[u'left', u'middle', u'right']","[0.8, 0.4, 0.2]","[u'medium', u'high', u'low']","black",50,"middle","high","True","False",216,6350,NA
"A2ZRL1ZWWXJ0L7","Thu Oct 01 2020 12:30:12 GMT-0700 (Mountain Standard Time)","Thu Oct 01 2020 12:37:15 GMT-0700 (Mountain Standard Time)","Mozilla/5.0 (Windows NT 10.0; Win64; x64; rv:81.0) Gecko/20100101 Firefox/81.0",123,"[0.9, 0.5, 0.1]","[0.8, 0.4, 0.2]","[u'blue', u'black', u'red']","[u'left', u'middle', u'right']","[0.8, 0.4, 0.2]","[u'medium', u'high', u'low']","black",50,"middle","high","False","False",6,6300,NA
"A2ZRL1ZWWXJ0L7","Thu Oct 01 2020 12:30:12 GMT-0700 (Mountain Standard Time)","Thu Oct 01 2020 12:37:15 GMT-0700 (Mountain Standard Time)","Mozilla/5.0 (Windows NT 10.0; Win64; x64; rv:81.0) Gecko/20100101 Firefox/81.0",124,"[0.9, 0.5, 0.1]","[0.8, 0.4, 0.2]","[u'blue', u'black', u'red']","[u'left', u'middle', u'right']","[0.8, 0.4, 0.2]","[u'medium', u'high', u'low']","blue",49,"left","medium","True","False",393,6400,NA
"A2ZRL1ZWWXJ0L7","Thu Oct 01 2020 12:30:12 GMT-0700 (Mountain Standard Time)","Thu Oct 01 2020 12:37:15 GMT-0700 (Mountain Standard Time)","Mozilla/5.0 (Windows NT 10.0; Win64; x64; rv:81.0) Gecko/20100101 Firefox/81.0",125,"[0.9, 0.5, 0.1]","[0.8, 0.4, 0.2]","[u'blue', u'black', u'red']","[u'left', u'middle', u'right']","[0.8, 0.4, 0.2]","[u'medium', u'high', u'low']","blue",49,"left","medium","False","False",222,6350,NA
"A2ZRL1ZWWXJ0L7","Thu Oct 01 2020 12:30:12 GMT-0700 (Mountain Standard Time)","Thu Oct 01 2020 12:37:15 GMT-0700 (Mountain Standard Time)","Mozilla/5.0 (Windows NT 10.0; Win64; x64; rv:81.0) Gecko/20100101 Firefox/81.0",126,"[0.9, 0.5, 0.1]","[0.8, 0.4, 0.2]","[u'blue', u'black', u'red']","[u'left', u'middle', u'right']","[0.8, 0.4, 0.2]","[u'medium', u'high', u'low']","blue",49,"left","medium","False","False",256,6300,NA
"A2ZRL1ZWWXJ0L7","Thu Oct 01 2020 12:30:12 GMT-0700 (Mountain Standard Time)","Thu Oct 01 2020 12:37:15 GMT-0700 (Mountain Standard Time)","Mozilla/5.0 (Windows NT 10.0; Win64; x64; rv:81.0) Gecko/20100101 Firefox/81.0",127,"[0.9, 0.5, 0.1]","[0.8, 0.4, 0.2]","[u'blue', u'black', u'red']","[u'left', u'middle', u'right']","[0.8, 0.4, 0.2]","[u'medium', u'high', u'low']","black",50,"middle","high","False","False",275,6250,NA
"A2ZRL1ZWWXJ0L7","Thu Oct 01 2020 12:30:12 GMT-0700 (Mountain Standard Time)","Thu Oct 01 2020 12:37:15 GMT-0700 (Mountain Standard Time)","Mozilla/5.0 (Windows NT 10.0; Win64; x64; rv:81.0) Gecko/20100101 Firefox/81.0",128,"[0.9, 0.5, 0.1]","[0.8, 0.4, 0.2]","[u'blue', u'black', u'red']","[u'left', u'middle', u'right']","[0.8, 0.4, 0.2]","[u'medium', u'high', u'low']","red",51,"right","low","False","False",222,6200,NA
"A2ZRL1ZWWXJ0L7","Thu Oct 01 2020 12:30:12 GMT-0700 (Mountain Standard Time)","Thu Oct 01 2020 12:37:15 GMT-0700 (Mountain Standard Time)","Mozilla/5.0 (Windows NT 10.0; Win64; x64; rv:81.0) Gecko/20100101 Firefox/81.0",129,"[0.9, 0.5, 0.1]","[0.8, 0.4, 0.2]","[u'blue', u'black', u'red']","[u'left', u'middle', u'right']","[0.8, 0.4, 0.2]","[u'medium', u'high', u'low']","black",50,"middle","high","False","False",33,6150,NA
"A2ZRL1ZWWXJ0L7","Thu Oct 01 2020 12:30:12 GMT-0700 (Mountain Standard Time)","Thu Oct 01 2020 12:37:15 GMT-0700 (Mountain Standard Time)","Mozilla/5.0 (Windows NT 10.0; Win64; x64; rv:81.0) Gecko/20100101 Firefox/81.0",130,"[0.9, 0.5, 0.1]","[0.8, 0.4, 0.2]","[u'blue', u'black', u'red']","[u'left', u'middle', u'right']","[0.8, 0.4, 0.2]","[u'medium', u'high', u'low']","red",51,"right","low","False","False",150,6100,NA
"A2ZRL1ZWWXJ0L7","Thu Oct 01 2020 12:30:12 GMT-0700 (Mountain Standard Time)","Thu Oct 01 2020 12:37:15 GMT-0700 (Mountain Standard Time)","Mozilla/5.0 (Windows NT 10.0; Win64; x64; rv:81.0) Gecko/20100101 Firefox/81.0",131,"[0.9, 0.5, 0.1]","[0.8, 0.4, 0.2]","[u'blue', u'black', u'red']","[u'left', u'middle', u'right']","[0.8, 0.4, 0.2]","[u'medium', u'high', u'low']","blue",49,"left","medium","False","False",60,6050,NA
"A2ZRL1ZWWXJ0L7","Thu Oct 01 2020 12:30:12 GMT-0700 (Mountain Standard Time)","Thu Oct 01 2020 12:37:15 GMT-0700 (Mountain Standard Time)","Mozilla/5.0 (Windows NT 10.0; Win64; x64; rv:81.0) Gecko/20100101 Firefox/81.0",132,"[0.9, 0.5, 0.1]","[0.8, 0.4, 0.2]","[u'blue', u'black', u'red']","[u'left', u'middle', u'right']","[0.8, 0.4, 0.2]","[u'medium', u'high', u'low']","blue",49,"left","medium","False","False",130,6000,NA
"A2ZRL1ZWWXJ0L7","Thu Oct 01 2020 12:30:12 GMT-0700 (Mountain Standard Time)","Thu Oct 01 2020 12:37:15 GMT-0700 (Mountain Standard Time)","Mozilla/5.0 (Windows NT 10.0; Win64; x64; rv:81.0) Gecko/20100101 Firefox/81.0",133,"[0.9, 0.5, 0.1]","[0.8, 0.4, 0.2]","[u'blue', u'black', u'red']","[u'left', u'middle', u'right']","[0.8, 0.4, 0.2]","[u'medium', u'high', u'low']","black",50,"middle","high","True","False",206,6100,NA
"A2ZRL1ZWWXJ0L7","Thu Oct 01 2020 12:30:12 GMT-0700 (Mountain Standard Time)","Thu Oct 01 2020 12:37:15 GMT-0700 (Mountain Standard Time)","Mozilla/5.0 (Windows NT 10.0; Win64; x64; rv:81.0) Gecko/20100101 Firefox/81.0",134,"[0.9, 0.5, 0.1]","[0.8, 0.4, 0.2]","[u'blue', u'black', u'red']","[u'left', u'middle', u'right']","[0.8, 0.4, 0.2]","[u'medium', u'high', u'low']","black",50,"middle","high","False","False",224,6050,NA
"A2ZRL1ZWWXJ0L7","Thu Oct 01 2020 12:30:12 GMT-0700 (Mountain Standard Time)","Thu Oct 01 2020 12:37:15 GMT-0700 (Mountain Standard Time)","Mozilla/5.0 (Windows NT 10.0; Win64; x64; rv:81.0) Gecko/20100101 Firefox/81.0",135,"[0.9, 0.5, 0.1]","[0.8, 0.4, 0.2]","[u'blue', u'black', u'red']","[u'left', u'middle', u'right']","[0.8, 0.4, 0.2]","[u'medium', u'high', u'low']","red",51,"right","low","False","False",227,6000,NA
"A2ZRL1ZWWXJ0L7","Thu Oct 01 2020 12:30:12 GMT-0700 (Mountain Standard Time)","Thu Oct 01 2020 12:37:15 GMT-0700 (Mountain Standard Time)","Mozilla/5.0 (Windows NT 10.0; Win64; x64; rv:81.0) Gecko/20100101 Firefox/81.0",136,"[0.9, 0.5, 0.1]","[0.8, 0.4, 0.2]","[u'blue', u'black', u'red']","[u'left', u'middle', u'right']","[0.8, 0.4, 0.2]","[u'medium', u'high', u'low']","blue",49,"left","medium","True","False",201,6100,NA
"A2ZRL1ZWWXJ0L7","Thu Oct 01 2020 12:30:12 GMT-0700 (Mountain Standard Time)","Thu Oct 01 2020 12:37:15 GMT-0700 (Mountain Standard Time)","Mozilla/5.0 (Windows NT 10.0; Win64; x64; rv:81.0) Gecko/20100101 Firefox/81.0",137,"[0.9, 0.5, 0.1]","[0.8, 0.4, 0.2]","[u'blue', u'black', u'red']","[u'left', u'middle', u'right']","[0.8, 0.4, 0.2]","[u'medium', u'high', u'low']","blue",49,"left","medium","False","False",260,6050,NA
"A2ZRL1ZWWXJ0L7","Thu Oct 01 2020 12:30:12 GMT-0700 (Mountain Standard Time)","Thu Oct 01 2020 12:37:15 GMT-0700 (Mountain Standard Time)","Mozilla/5.0 (Windows NT 10.0; Win64; x64; rv:81.0) Gecko/20100101 Firefox/81.0",138,"[0.9, 0.5, 0.1]","[0.8, 0.4, 0.2]","[u'blue', u'black', u'red']","[u'left', u'middle', u'right']","[0.8, 0.4, 0.2]","[u'medium', u'high', u'low']","black",50,"middle","high","True","False",295,6150,NA
"A2ZRL1ZWWXJ0L7","Thu Oct 01 2020 12:30:12 GMT-0700 (Mountain Standard Time)","Thu Oct 01 2020 12:37:15 GMT-0700 (Mountain Standard Time)","Mozilla/5.0 (Windows NT 10.0; Win64; x64; rv:81.0) Gecko/20100101 Firefox/81.0",139,"[0.9, 0.5, 0.1]","[0.8, 0.4, 0.2]","[u'blue', u'black', u'red']","[u'left', u'middle', u'right']","[0.8, 0.4, 0.2]","[u'medium', u'high', u'low']","black",50,"middle","high","True","False",206,6250,NA
"A2ZRL1ZWWXJ0L7","Thu Oct 01 2020 12:30:12 GMT-0700 (Mountain Standard Time)","Thu Oct 01 2020 12:37:15 GMT-0700 (Mountain Standard Time)","Mozilla/5.0 (Windows NT 10.0; Win64; x64; rv:81.0) Gecko/20100101 Firefox/81.0",140,"[0.9, 0.5, 0.1]","[0.8, 0.4, 0.2]","[u'blue', u'black', u'red']","[u'left', u'middle', u'right']","[0.8, 0.4, 0.2]","[u'medium', u'high', u'low']","black",50,"middle","high","True","False",343,6350,NA
"A2ZRL1ZWWXJ0L7","Thu Oct 01 2020 12:30:12 GMT-0700 (Mountain Standard Time)","Thu Oct 01 2020 12:37:15 GMT-0700 (Mountain Standard Time)","Mozilla/5.0 (Windows NT 10.0; Win64; x64; rv:81.0) Gecko/20100101 Firefox/81.0",141,"[0.9, 0.5, 0.1]","[0.8, 0.4, 0.2]","[u'blue', u'black', u'red']","[u'left', u'middle', u'right']","[0.8, 0.4, 0.2]","[u'medium', u'high', u'low']","black",50,"middle","high","False","False",326,6300,NA
"A2ZRL1ZWWXJ0L7","Thu Oct 01 2020 12:30:12 GMT-0700 (Mountain Standard Time)","Thu Oct 01 2020 12:37:15 GMT-0700 (Mountain Standard Time)","Mozilla/5.0 (Windows NT 10.0; Win64; x64; rv:81.0) Gecko/20100101 Firefox/81.0",142,"[0.9, 0.5, 0.1]","[0.8, 0.4, 0.2]","[u'blue', u'black', u'red']","[u'left', u'middle', u'right']","[0.8, 0.4, 0.2]","[u'medium', u'high', u'low']","red",51,"right","low","True","False",254,6400,NA
"A2ZRL1ZWWXJ0L7","Thu Oct 01 2020 12:30:12 GMT-0700 (Mountain Standard Time)","Thu Oct 01 2020 12:37:15 GMT-0700 (Mountain Standard Time)","Mozilla/5.0 (Windows NT 10.0; Win64; x64; rv:81.0) Gecko/20100101 Firefox/81.0",143,"[0.9, 0.5, 0.1]","[0.8, 0.4, 0.2]","[u'blue', u'black', u'red']","[u'left', u'middle', u'right']","[0.8, 0.4, 0.2]","[u'medium', u'high', u'low']","red",51,"right","low","False","False",285,6350,NA
"A2ZRL1ZWWXJ0L7","Thu Oct 01 2020 12:30:12 GMT-0700 (Mountain Standard Time)","Thu Oct 01 2020 12:37:15 GMT-0700 (Mountain Standard Time)","Mozilla/5.0 (Windows NT 10.0; Win64; x64; rv:81.0) Gecko/20100101 Firefox/81.0",144,"[0.9, 0.5, 0.1]","[0.8, 0.4, 0.2]","[u'blue', u'black', u'red']","[u'left', u'middle', u'right']","[0.8, 0.4, 0.2]","[u'medium', u'high', u'low']","red",51,"right","low","False","False",265,6300,NA
"A2ZRL1ZWWXJ0L7","Thu Oct 01 2020 12:30:12 GMT-0700 (Mountain Standard Time)","Thu Oct 01 2020 12:37:15 GMT-0700 (Mountain Standard Time)","Mozilla/5.0 (Windows NT 10.0; Win64; x64; rv:81.0) Gecko/20100101 Firefox/81.0",145,"[0.9, 0.5, 0.1]","[0.8, 0.4, 0.2]","[u'blue', u'black', u'red']","[u'left', u'middle', u'right']","[0.8, 0.4, 0.2]","[u'medium', u'high', u'low']","blue",49,"left","medium","False","False",191,6250,NA
"A2ZRL1ZWWXJ0L7","Thu Oct 01 2020 12:30:12 GMT-0700 (Mountain Standard Time)","Thu Oct 01 2020 12:37:15 GMT-0700 (Mountain Standard Time)","Mozilla/5.0 (Windows NT 10.0; Win64; x64; rv:81.0) Gecko/20100101 Firefox/81.0",146,"[0.9, 0.5, 0.1]","[0.8, 0.4, 0.2]","[u'blue', u'black', u'red']","[u'left', u'middle', u'right']","[0.8, 0.4, 0.2]","[u'medium', u'high', u'low']","black",50,"middle","high","True","False",133,6350,NA
"A2ZRL1ZWWXJ0L7","Thu Oct 01 2020 12:30:12 GMT-0700 (Mountain Standard Time)","Thu Oct 01 2020 12:37:15 GMT-0700 (Mountain Standard Time)","Mozilla/5.0 (Windows NT 10.0; Win64; x64; rv:81.0) Gecko/20100101 Firefox/81.0",147,"[0.9, 0.5, 0.1]","[0.8, 0.4, 0.2]","[u'blue', u'black', u'red']","[u'left', u'middle', u'right']","[0.8, 0.4, 0.2]","[u'medium', u'high', u'low']","black",50,"middle","high","True","False",266,6450,NA
"A2ZRL1ZWWXJ0L7","Thu Oct 01 2020 12:30:12 GMT-0700 (Mountain Standard Time)","Thu Oct 01 2020 12:37:15 GMT-0700 (Mountain Standard Time)","Mozilla/5.0 (Windows NT 10.0; Win64; x64; rv:81.0) Gecko/20100101 Firefox/81.0",148,"[0.9, 0.5, 0.1]","[0.8, 0.4, 0.2]","[u'blue', u'black', u'red']","[u'left', u'middle', u'right']","[0.8, 0.4, 0.2]","[u'medium', u'high', u'low']","black",50,"middle","high","True","False",294,6550,NA
"A2ZRL1ZWWXJ0L7","Thu Oct 01 2020 12:30:12 GMT-0700 (Mountain Standard Time)","Thu Oct 01 2020 12:37:15 GMT-0700 (Mountain Standard Time)","Mozilla/5.0 (Windows NT 10.0; Win64; x64; rv:81.0) Gecko/20100101 Firefox/81.0",149,"[0.9, 0.5, 0.1]","[0.8, 0.4, 0.2]","[u'blue', u'black', u'red']","[u'left', u'middle', u'right']","[0.8, 0.4, 0.2]","[u'medium', u'high', u'low']","black",50,"middle","high","False","False",402,6500,NA
"A2ZRL1ZWWXJ0L7","Thu Oct 01 2020 12:30:12 GMT-0700 (Mountain Standard Time)","Thu Oct 01 2020 12:37:15 GMT-0700 (Mountain Standard Time)","Mozilla/5.0 (Windows NT 10.0; Win64; x64; rv:81.0) Gecko/20100101 Firefox/81.0",150,"[0.9, 0.5, 0.1]","[0.8, 0.4, 0.2]","[u'blue', u'black', u'red']","[u'left', u'middle', u'right']","[0.8, 0.4, 0.2]","[u'medium', u'high', u'low']","blue",49,"left","medium","False","False",250,6450,NA
"A2ZRL1ZWWXJ0L7","Thu Oct 01 2020 12:30:12 GMT-0700 (Mountain Standard Time)","Thu Oct 01 2020 12:37:15 GMT-0700 (Mountain Standard Time)","Mozilla/5.0 (Windows NT 10.0; Win64; x64; rv:81.0) Gecko/20100101 Firefox/81.0",151,"[0.9, 0.5, 0.1]","[0.8, 0.4, 0.2]","[u'blue', u'black', u'red']","[u'left', u'middle', u'right']","[0.8, 0.4, 0.2]","[u'medium', u'high', u'low']","red",51,"right","low","False","False",174,6400,NA
"A2ZRL1ZWWXJ0L7","Thu Oct 01 2020 12:30:12 GMT-0700 (Mountain Standard Time)","Thu Oct 01 2020 12:37:15 GMT-0700 (Mountain Standard Time)","Mozilla/5.0 (Windows NT 10.0; Win64; x64; rv:81.0) Gecko/20100101 Firefox/81.0",152,"[0.9, 0.5, 0.1]","[0.8, 0.4, 0.2]","[u'blue', u'black', u'red']","[u'left', u'middle', u'right']","[0.8, 0.4, 0.2]","[u'medium', u'high', u'low']","black",50,"middle","high","False","False",158,6350,NA
"A2ZRL1ZWWXJ0L7","Thu Oct 01 2020 12:30:12 GMT-0700 (Mountain Standard Time)","Thu Oct 01 2020 12:37:15 GMT-0700 (Mountain Standard Time)","Mozilla/5.0 (Windows NT 10.0; Win64; x64; rv:81.0) Gecko/20100101 Firefox/81.0",153,"[0.9, 0.5, 0.1]","[0.8, 0.4, 0.2]","[u'blue', u'black', u'red']","[u'left', u'middle', u'right']","[0.8, 0.4, 0.2]","[u'medium', u'high', u'low']","blue",49,"left","medium","True","False",439,6450,NA
"A2ZRL1ZWWXJ0L7","Thu Oct 01 2020 12:30:12 GMT-0700 (Mountain Standard Time)","Thu Oct 01 2020 12:37:15 GMT-0700 (Mountain Standard Time)","Mozilla/5.0 (Windows NT 10.0; Win64; x64; rv:81.0) Gecko/20100101 Firefox/81.0",154,"[0.9, 0.5, 0.1]","[0.8, 0.4, 0.2]","[u'blue', u'black', u'red']","[u'left', u'middle', u'right']","[0.8, 0.4, 0.2]","[u'medium', u'high', u'low']","blue",49,"left","medium","False","False",220,6400,NA
"A2ZRL1ZWWXJ0L7","Thu Oct 01 2020 12:30:12 GMT-0700 (Mountain Standard Time)","Thu Oct 01 2020 12:37:15 GMT-0700 (Mountain Standard Time)","Mozilla/5.0 (Windows NT 10.0; Win64; x64; rv:81.0) Gecko/20100101 Firefox/81.0",155,"[0.9, 0.5, 0.1]","[0.8, 0.4, 0.2]","[u'blue', u'black', u'red']","[u'left', u'middle', u'right']","[0.8, 0.4, 0.2]","[u'medium', u'high', u'low']","black",50,"middle","high","True","False",187,6500,NA
"A2ZRL1ZWWXJ0L7","Thu Oct 01 2020 12:30:12 GMT-0700 (Mountain Standard Time)","Thu Oct 01 2020 12:37:15 GMT-0700 (Mountain Standard Time)","Mozilla/5.0 (Windows NT 10.0; Win64; x64; rv:81.0) Gecko/20100101 Firefox/81.0",156,"[0.9, 0.5, 0.1]","[0.8, 0.4, 0.2]","[u'blue', u'black', u'red']","[u'left', u'middle', u'right']","[0.8, 0.4, 0.2]","[u'medium', u'high', u'low']","black",50,"middle","high","True","False",293,6600,NA
"A2ZRL1ZWWXJ0L7","Thu Oct 01 2020 12:30:12 GMT-0700 (Mountain Standard Time)","Thu Oct 01 2020 12:37:15 GMT-0700 (Mountain Standard Time)","Mozilla/5.0 (Windows NT 10.0; Win64; x64; rv:81.0) Gecko/20100101 Firefox/81.0",157,"[0.9, 0.5, 0.1]","[0.8, 0.4, 0.2]","[u'blue', u'black', u'red']","[u'left', u'middle', u'right']","[0.8, 0.4, 0.2]","[u'medium', u'high', u'low']","black",50,"middle","high","True","False",347,6700,NA
"A2ZRL1ZWWXJ0L7","Thu Oct 01 2020 12:30:12 GMT-0700 (Mountain Standard Time)","Thu Oct 01 2020 12:37:15 GMT-0700 (Mountain Standard Time)","Mozilla/5.0 (Windows NT 10.0; Win64; x64; rv:81.0) Gecko/20100101 Firefox/81.0",158,"[0.9, 0.5, 0.1]","[0.8, 0.4, 0.2]","[u'blue', u'black', u'red']","[u'left', u'middle', u'right']","[0.8, 0.4, 0.2]","[u'medium', u'high', u'low']","black",50,"middle","high","False","False",395,6650,NA
"A2ZRL1ZWWXJ0L7","Thu Oct 01 2020 12:30:12 GMT-0700 (Mountain Standard Time)","Thu Oct 01 2020 12:37:15 GMT-0700 (Mountain Standard Time)","Mozilla/5.0 (Windows NT 10.0; Win64; x64; rv:81.0) Gecko/20100101 Firefox/81.0",159,"[0.9, 0.5, 0.1]","[0.8, 0.4, 0.2]","[u'blue', u'black', u'red']","[u'left', u'middle', u'right']","[0.8, 0.4, 0.2]","[u'medium', u'high', u'low']","red",51,"right","low","True","False",263,6750,NA
"A2ZRL1ZWWXJ0L7","Thu Oct 01 2020 12:30:12 GMT-0700 (Mountain Standard Time)","Thu Oct 01 2020 12:37:15 GMT-0700 (Mountain Standard Time)","Mozilla/5.0 (Windows NT 10.0; Win64; x64; rv:81.0) Gecko/20100101 Firefox/81.0",160,"[0.9, 0.5, 0.1]","[0.8, 0.4, 0.2]","[u'blue', u'black', u'red']","[u'left', u'middle', u'right']","[0.8, 0.4, 0.2]","[u'medium', u'high', u'low']","red",51,"right","low","False","False",253,6700,NA
