"src_subject_id","start_time","end_time","browser","index","first_half_probabilities","second_half_probabilities","deck_color","deck_position","deck_probabilities","deck_contingencies","response_color","key_press","response_position","response_probability","reward_type","trial_type","rt","reward_tally","exclusion_reason"
"A2H8I5RMCV8F9H","Fri Oct 02 2020 10:27:34 GMT-0400 (Eastern Daylight Time)","Fri Oct 02 2020 10:35:55 GMT-0400 (Eastern Daylight Time)","Mozilla/5.0 (Windows NT 6.3; Win64; x64) AppleWebKit/537.36 (KHTML, like Gecko) Chrome/85.0.4183.121 Safari/537.36",1,"[0.9, 0.5, 0.1]","[0.8, 0.4, 0.2]","[u'red', u'black', u'blue']","[u'left', u'middle', u'right']","[0.9, 0.5, 0.1]","[u'high', u'medium', u'low']","black",50,"middle","medium","False","False",890,-50,NA
"A2H8I5RMCV8F9H","Fri Oct 02 2020 10:27:34 GMT-0400 (Eastern Daylight Time)","Fri Oct 02 2020 10:35:55 GMT-0400 (Eastern Daylight Time)","Mozilla/5.0 (Windows NT 6.3; Win64; x64) AppleWebKit/537.36 (KHTML, like Gecko) Chrome/85.0.4183.121 Safari/537.36",2,"[0.9, 0.5, 0.1]","[0.8, 0.4, 0.2]","[u'red', u'black', u'blue']","[u'left', u'middle', u'right']","[0.9, 0.5, 0.1]","[u'high', u'medium', u'low']","blue",51,"right","low","False","False",860,-100,NA
"A2H8I5RMCV8F9H","Fri Oct 02 2020 10:27:34 GMT-0400 (Eastern Daylight Time)","Fri Oct 02 2020 10:35:55 GMT-0400 (Eastern Daylight Time)","Mozilla/5.0 (Windows NT 6.3; Win64; x64) AppleWebKit/537.36 (KHTML, like Gecko) Chrome/85.0.4183.121 Safari/537.36",3,"[0.9, 0.5, 0.1]","[0.8, 0.4, 0.2]","[u'red', u'black', u'blue']","[u'left', u'middle', u'right']","[0.9, 0.5, 0.1]","[u'high', u'medium', u'low']","black",50,"middle","medium","True","False",641,0,NA
"A2H8I5RMCV8F9H","Fri Oct 02 2020 10:27:34 GMT-0400 (Eastern Daylight Time)","Fri Oct 02 2020 10:35:55 GMT-0400 (Eastern Daylight Time)","Mozilla/5.0 (Windows NT 6.3; Win64; x64) AppleWebKit/537.36 (KHTML, like Gecko) Chrome/85.0.4183.121 Safari/537.36",4,"[0.9, 0.5, 0.1]","[0.8, 0.4, 0.2]","[u'red', u'black', u'blue']","[u'left', u'middle', u'right']","[0.9, 0.5, 0.1]","[u'high', u'medium', u'low']","blue",51,"right","low","True","False",2090,100,NA
"A2H8I5RMCV8F9H","Fri Oct 02 2020 10:27:34 GMT-0400 (Eastern Daylight Time)","Fri Oct 02 2020 10:35:55 GMT-0400 (Eastern Daylight Time)","Mozilla/5.0 (Windows NT 6.3; Win64; x64) AppleWebKit/537.36 (KHTML, like Gecko) Chrome/85.0.4183.121 Safari/537.36",5,"[0.9, 0.5, 0.1]","[0.8, 0.4, 0.2]","[u'red', u'black', u'blue']","[u'left', u'middle', u'right']","[0.9, 0.5, 0.1]","[u'high', u'medium', u'low']","red",49,"left","high","True","False",1766,200,NA
"A2H8I5RMCV8F9H","Fri Oct 02 2020 10:27:34 GMT-0400 (Eastern Daylight Time)","Fri Oct 02 2020 10:35:55 GMT-0400 (Eastern Daylight Time)","Mozilla/5.0 (Windows NT 6.3; Win64; x64) AppleWebKit/537.36 (KHTML, like Gecko) Chrome/85.0.4183.121 Safari/537.36",6,"[0.9, 0.5, 0.1]","[0.8, 0.4, 0.2]","[u'red', u'black', u'blue']","[u'left', u'middle', u'right']","[0.9, 0.5, 0.1]","[u'high', u'medium', u'low']","black",50,"middle","medium","True","False",807,300,NA
"A2H8I5RMCV8F9H","Fri Oct 02 2020 10:27:34 GMT-0400 (Eastern Daylight Time)","Fri Oct 02 2020 10:35:55 GMT-0400 (Eastern Daylight Time)","Mozilla/5.0 (Windows NT 6.3; Win64; x64) AppleWebKit/537.36 (KHTML, like Gecko) Chrome/85.0.4183.121 Safari/537.36",7,"[0.9, 0.5, 0.1]","[0.8, 0.4, 0.2]","[u'red', u'black', u'blue']","[u'left', u'middle', u'right']","[0.9, 0.5, 0.1]","[u'high', u'medium', u'low']","red",49,"left","high","True","False",814,400,NA
"A2H8I5RMCV8F9H","Fri Oct 02 2020 10:27:34 GMT-0400 (Eastern Daylight Time)","Fri Oct 02 2020 10:35:55 GMT-0400 (Eastern Daylight Time)","Mozilla/5.0 (Windows NT 6.3; Win64; x64) AppleWebKit/537.36 (KHTML, like Gecko) Chrome/85.0.4183.121 Safari/537.36",8,"[0.9, 0.5, 0.1]","[0.8, 0.4, 0.2]","[u'red', u'black', u'blue']","[u'left', u'middle', u'right']","[0.9, 0.5, 0.1]","[u'high', u'medium', u'low']","blue",51,"right","low","False","False",1013,350,NA
"A2H8I5RMCV8F9H","Fri Oct 02 2020 10:27:34 GMT-0400 (Eastern Daylight Time)","Fri Oct 02 2020 10:35:55 GMT-0400 (Eastern Daylight Time)","Mozilla/5.0 (Windows NT 6.3; Win64; x64) AppleWebKit/537.36 (KHTML, like Gecko) Chrome/85.0.4183.121 Safari/537.36",9,"[0.9, 0.5, 0.1]","[0.8, 0.4, 0.2]","[u'red', u'black', u'blue']","[u'left', u'middle', u'right']","[0.9, 0.5, 0.1]","[u'high', u'medium', u'low']","black",50,"middle","medium","False","False",731,300,NA
"A2H8I5RMCV8F9H","Fri Oct 02 2020 10:27:34 GMT-0400 (Eastern Daylight Time)","Fri Oct 02 2020 10:35:55 GMT-0400 (Eastern Daylight Time)","Mozilla/5.0 (Windows NT 6.3; Win64; x64) AppleWebKit/537.36 (KHTML, like Gecko) Chrome/85.0.4183.121 Safari/537.36",10,"[0.9, 0.5, 0.1]","[0.8, 0.4, 0.2]","[u'red', u'black', u'blue']","[u'left', u'middle', u'right']","[0.9, 0.5, 0.1]","[u'high', u'medium', u'low']","black",50,"middle","medium","False","False",1336,250,NA
"A2H8I5RMCV8F9H","Fri Oct 02 2020 10:27:34 GMT-0400 (Eastern Daylight Time)","Fri Oct 02 2020 10:35:55 GMT-0400 (Eastern Daylight Time)","Mozilla/5.0 (Windows NT 6.3; Win64; x64) AppleWebKit/537.36 (KHTML, like Gecko) Chrome/85.0.4183.121 Safari/537.36",11,"[0.9, 0.5, 0.1]","[0.8, 0.4, 0.2]","[u'red', u'black', u'blue']","[u'left', u'middle', u'right']","[0.9, 0.5, 0.1]","[u'high', u'medium', u'low']","red",49,"left","high","True","False",660,350,NA
"A2H8I5RMCV8F9H","Fri Oct 02 2020 10:27:34 GMT-0400 (Eastern Daylight Time)","Fri Oct 02 2020 10:35:55 GMT-0400 (Eastern Daylight Time)","Mozilla/5.0 (Windows NT 6.3; Win64; x64) AppleWebKit/537.36 (KHTML, like Gecko) Chrome/85.0.4183.121 Safari/537.36",12,"[0.9, 0.5, 0.1]","[0.8, 0.4, 0.2]","[u'red', u'black', u'blue']","[u'left', u'middle', u'right']","[0.9, 0.5, 0.1]","[u'high', u'medium', u'low']","black",50,"middle","medium","False","False",1224,300,NA
"A2H8I5RMCV8F9H","Fri Oct 02 2020 10:27:34 GMT-0400 (Eastern Daylight Time)","Fri Oct 02 2020 10:35:55 GMT-0400 (Eastern Daylight Time)","Mozilla/5.0 (Windows NT 6.3; Win64; x64) AppleWebKit/537.36 (KHTML, like Gecko) Chrome/85.0.4183.121 Safari/537.36",13,"[0.9, 0.5, 0.1]","[0.8, 0.4, 0.2]","[u'red', u'black', u'blue']","[u'left', u'middle', u'right']","[0.9, 0.5, 0.1]","[u'high', u'medium', u'low']","blue",51,"right","low","False","False",674,250,NA
"A2H8I5RMCV8F9H","Fri Oct 02 2020 10:27:34 GMT-0400 (Eastern Daylight Time)","Fri Oct 02 2020 10:35:55 GMT-0400 (Eastern Daylight Time)","Mozilla/5.0 (Windows NT 6.3; Win64; x64) AppleWebKit/537.36 (KHTML, like Gecko) Chrome/85.0.4183.121 Safari/537.36",14,"[0.9, 0.5, 0.1]","[0.8, 0.4, 0.2]","[u'red', u'black', u'blue']","[u'left', u'middle', u'right']","[0.9, 0.5, 0.1]","[u'high', u'medium', u'low']","red",49,"left","high","True","False",631,350,NA
"A2H8I5RMCV8F9H","Fri Oct 02 2020 10:27:34 GMT-0400 (Eastern Daylight Time)","Fri Oct 02 2020 10:35:55 GMT-0400 (Eastern Daylight Time)","Mozilla/5.0 (Windows NT 6.3; Win64; x64) AppleWebKit/537.36 (KHTML, like Gecko) Chrome/85.0.4183.121 Safari/537.36",15,"[0.9, 0.5, 0.1]","[0.8, 0.4, 0.2]","[u'red', u'black', u'blue']","[u'left', u'middle', u'right']","[0.9, 0.5, 0.1]","[u'high', u'medium', u'low']","red",49,"left","high","True","False",734,450,NA
"A2H8I5RMCV8F9H","Fri Oct 02 2020 10:27:34 GMT-0400 (Eastern Daylight Time)","Fri Oct 02 2020 10:35:55 GMT-0400 (Eastern Daylight Time)","Mozilla/5.0 (Windows NT 6.3; Win64; x64) AppleWebKit/537.36 (KHTML, like Gecko) Chrome/85.0.4183.121 Safari/537.36",16,"[0.9, 0.5, 0.1]","[0.8, 0.4, 0.2]","[u'red', u'black', u'blue']","[u'left', u'middle', u'right']","[0.9, 0.5, 0.1]","[u'high', u'medium', u'low']","red",49,"left","high","True","False",812,550,NA
"A2H8I5RMCV8F9H","Fri Oct 02 2020 10:27:34 GMT-0400 (Eastern Daylight Time)","Fri Oct 02 2020 10:35:55 GMT-0400 (Eastern Daylight Time)","Mozilla/5.0 (Windows NT 6.3; Win64; x64) AppleWebKit/537.36 (KHTML, like Gecko) Chrome/85.0.4183.121 Safari/537.36",17,"[0.9, 0.5, 0.1]","[0.8, 0.4, 0.2]","[u'red', u'black', u'blue']","[u'left', u'middle', u'right']","[0.9, 0.5, 0.1]","[u'high', u'medium', u'low']","red",49,"left","high","True","False",784,650,NA
"A2H8I5RMCV8F9H","Fri Oct 02 2020 10:27:34 GMT-0400 (Eastern Daylight Time)","Fri Oct 02 2020 10:35:55 GMT-0400 (Eastern Daylight Time)","Mozilla/5.0 (Windows NT 6.3; Win64; x64) AppleWebKit/537.36 (KHTML, like Gecko) Chrome/85.0.4183.121 Safari/537.36",18,"[0.9, 0.5, 0.1]","[0.8, 0.4, 0.2]","[u'red', u'black', u'blue']","[u'left', u'middle', u'right']","[0.9, 0.5, 0.1]","[u'high', u'medium', u'low']","red",49,"left","high","False","False",799,600,NA
"A2H8I5RMCV8F9H","Fri Oct 02 2020 10:27:34 GMT-0400 (Eastern Daylight Time)","Fri Oct 02 2020 10:35:55 GMT-0400 (Eastern Daylight Time)","Mozilla/5.0 (Windows NT 6.3; Win64; x64) AppleWebKit/537.36 (KHTML, like Gecko) Chrome/85.0.4183.121 Safari/537.36",19,"[0.9, 0.5, 0.1]","[0.8, 0.4, 0.2]","[u'red', u'black', u'blue']","[u'left', u'middle', u'right']","[0.9, 0.5, 0.1]","[u'high', u'medium', u'low']","black",50,"middle","medium","False","False",748,550,NA
"A2H8I5RMCV8F9H","Fri Oct 02 2020 10:27:34 GMT-0400 (Eastern Daylight Time)","Fri Oct 02 2020 10:35:55 GMT-0400 (Eastern Daylight Time)","Mozilla/5.0 (Windows NT 6.3; Win64; x64) AppleWebKit/537.36 (KHTML, like Gecko) Chrome/85.0.4183.121 Safari/537.36",20,"[0.9, 0.5, 0.1]","[0.8, 0.4, 0.2]","[u'red', u'black', u'blue']","[u'left', u'middle', u'right']","[0.9, 0.5, 0.1]","[u'high', u'medium', u'low']","blue",51,"right","low","False","False",734,500,NA
"A2H8I5RMCV8F9H","Fri Oct 02 2020 10:27:34 GMT-0400 (Eastern Daylight Time)","Fri Oct 02 2020 10:35:55 GMT-0400 (Eastern Daylight Time)","Mozilla/5.0 (Windows NT 6.3; Win64; x64) AppleWebKit/537.36 (KHTML, like Gecko) Chrome/85.0.4183.121 Safari/537.36",21,"[0.9, 0.5, 0.1]","[0.8, 0.4, 0.2]","[u'red', u'black', u'blue']","[u'left', u'middle', u'right']","[0.9, 0.5, 0.1]","[u'high', u'medium', u'low']","black",50,"middle","medium","False","False",718,450,NA
"A2H8I5RMCV8F9H","Fri Oct 02 2020 10:27:34 GMT-0400 (Eastern Daylight Time)","Fri Oct 02 2020 10:35:55 GMT-0400 (Eastern Daylight Time)","Mozilla/5.0 (Windows NT 6.3; Win64; x64) AppleWebKit/537.36 (KHTML, like Gecko) Chrome/85.0.4183.121 Safari/537.36",22,"[0.9, 0.5, 0.1]","[0.8, 0.4, 0.2]","[u'red', u'black', u'blue']","[u'left', u'middle', u'right']","[0.9, 0.5, 0.1]","[u'high', u'medium', u'low']","red",49,"left","high","True","False",767,550,NA
"A2H8I5RMCV8F9H","Fri Oct 02 2020 10:27:34 GMT-0400 (Eastern Daylight Time)","Fri Oct 02 2020 10:35:55 GMT-0400 (Eastern Daylight Time)","Mozilla/5.0 (Windows NT 6.3; Win64; x64) AppleWebKit/537.36 (KHTML, like Gecko) Chrome/85.0.4183.121 Safari/537.36",23,"[0.9, 0.5, 0.1]","[0.8, 0.4, 0.2]","[u'red', u'black', u'blue']","[u'left', u'middle', u'right']","[0.9, 0.5, 0.1]","[u'high', u'medium', u'low']","red",49,"left","high","True","False",647,650,NA
"A2H8I5RMCV8F9H","Fri Oct 02 2020 10:27:34 GMT-0400 (Eastern Daylight Time)","Fri Oct 02 2020 10:35:55 GMT-0400 (Eastern Daylight Time)","Mozilla/5.0 (Windows NT 6.3; Win64; x64) AppleWebKit/537.36 (KHTML, like Gecko) Chrome/85.0.4183.121 Safari/537.36",24,"[0.9, 0.5, 0.1]","[0.8, 0.4, 0.2]","[u'red', u'black', u'blue']","[u'left', u'middle', u'right']","[0.9, 0.5, 0.1]","[u'high', u'medium', u'low']","red",49,"left","high","True","False",1446,750,NA
"A2H8I5RMCV8F9H","Fri Oct 02 2020 10:27:34 GMT-0400 (Eastern Daylight Time)","Fri Oct 02 2020 10:35:55 GMT-0400 (Eastern Daylight Time)","Mozilla/5.0 (Windows NT 6.3; Win64; x64) AppleWebKit/537.36 (KHTML, like Gecko) Chrome/85.0.4183.121 Safari/537.36",25,"[0.9, 0.5, 0.1]","[0.8, 0.4, 0.2]","[u'red', u'black', u'blue']","[u'left', u'middle', u'right']","[0.9, 0.5, 0.1]","[u'high', u'medium', u'low']","red",49,"left","high","True","False",859,850,NA
"A2H8I5RMCV8F9H","Fri Oct 02 2020 10:27:34 GMT-0400 (Eastern Daylight Time)","Fri Oct 02 2020 10:35:55 GMT-0400 (Eastern Daylight Time)","Mozilla/5.0 (Windows NT 6.3; Win64; x64) AppleWebKit/537.36 (KHTML, like Gecko) Chrome/85.0.4183.121 Safari/537.36",26,"[0.9, 0.5, 0.1]","[0.8, 0.4, 0.2]","[u'red', u'black', u'blue']","[u'left', u'middle', u'right']","[0.9, 0.5, 0.1]","[u'high', u'medium', u'low']","red",49,"left","high","True","False",921,950,NA
"A2H8I5RMCV8F9H","Fri Oct 02 2020 10:27:34 GMT-0400 (Eastern Daylight Time)","Fri Oct 02 2020 10:35:55 GMT-0400 (Eastern Daylight Time)","Mozilla/5.0 (Windows NT 6.3; Win64; x64) AppleWebKit/537.36 (KHTML, like Gecko) Chrome/85.0.4183.121 Safari/537.36",27,"[0.9, 0.5, 0.1]","[0.8, 0.4, 0.2]","[u'red', u'black', u'blue']","[u'left', u'middle', u'right']","[0.9, 0.5, 0.1]","[u'high', u'medium', u'low']","red",49,"left","high","True","False",756,1050,NA
"A2H8I5RMCV8F9H","Fri Oct 02 2020 10:27:34 GMT-0400 (Eastern Daylight Time)","Fri Oct 02 2020 10:35:55 GMT-0400 (Eastern Daylight Time)","Mozilla/5.0 (Windows NT 6.3; Win64; x64) AppleWebKit/537.36 (KHTML, like Gecko) Chrome/85.0.4183.121 Safari/537.36",28,"[0.9, 0.5, 0.1]","[0.8, 0.4, 0.2]","[u'red', u'black', u'blue']","[u'left', u'middle', u'right']","[0.9, 0.5, 0.1]","[u'high', u'medium', u'low']","red",49,"left","high","True","False",760,1150,NA
"A2H8I5RMCV8F9H","Fri Oct 02 2020 10:27:34 GMT-0400 (Eastern Daylight Time)","Fri Oct 02 2020 10:35:55 GMT-0400 (Eastern Daylight Time)","Mozilla/5.0 (Windows NT 6.3; Win64; x64) AppleWebKit/537.36 (KHTML, like Gecko) Chrome/85.0.4183.121 Safari/537.36",29,"[0.9, 0.5, 0.1]","[0.8, 0.4, 0.2]","[u'red', u'black', u'blue']","[u'left', u'middle', u'right']","[0.9, 0.5, 0.1]","[u'high', u'medium', u'low']","red",49,"left","high","True","False",682,1250,NA
"A2H8I5RMCV8F9H","Fri Oct 02 2020 10:27:34 GMT-0400 (Eastern Daylight Time)","Fri Oct 02 2020 10:35:55 GMT-0400 (Eastern Daylight Time)","Mozilla/5.0 (Windows NT 6.3; Win64; x64) AppleWebKit/537.36 (KHTML, like Gecko) Chrome/85.0.4183.121 Safari/537.36",30,"[0.9, 0.5, 0.1]","[0.8, 0.4, 0.2]","[u'red', u'black', u'blue']","[u'left', u'middle', u'right']","[0.9, 0.5, 0.1]","[u'high', u'medium', u'low']","red",49,"left","high","True","True",684,1350,NA
"A2H8I5RMCV8F9H","Fri Oct 02 2020 10:27:34 GMT-0400 (Eastern Daylight Time)","Fri Oct 02 2020 10:35:55 GMT-0400 (Eastern Daylight Time)","Mozilla/5.0 (Windows NT 6.3; Win64; x64) AppleWebKit/537.36 (KHTML, like Gecko) Chrome/85.0.4183.121 Safari/537.36",31,"[0.9, 0.5, 0.1]","[0.8, 0.4, 0.2]","[u'red', u'black', u'blue']","[u'left', u'middle', u'right']","[0.9, 0.5, 0.1]","[u'low', u'medium', u'high']","red",49,"left","low","False","False",768,1300,NA
"A2H8I5RMCV8F9H","Fri Oct 02 2020 10:27:34 GMT-0400 (Eastern Daylight Time)","Fri Oct 02 2020 10:35:55 GMT-0400 (Eastern Daylight Time)","Mozilla/5.0 (Windows NT 6.3; Win64; x64) AppleWebKit/537.36 (KHTML, like Gecko) Chrome/85.0.4183.121 Safari/537.36",32,"[0.9, 0.5, 0.1]","[0.8, 0.4, 0.2]","[u'red', u'black', u'blue']","[u'left', u'middle', u'right']","[0.9, 0.5, 0.1]","[u'low', u'medium', u'high']","blue",51,"right","high","True","False",856,1400,NA
"A2H8I5RMCV8F9H","Fri Oct 02 2020 10:27:34 GMT-0400 (Eastern Daylight Time)","Fri Oct 02 2020 10:35:55 GMT-0400 (Eastern Daylight Time)","Mozilla/5.0 (Windows NT 6.3; Win64; x64) AppleWebKit/537.36 (KHTML, like Gecko) Chrome/85.0.4183.121 Safari/537.36",33,"[0.9, 0.5, 0.1]","[0.8, 0.4, 0.2]","[u'red', u'black', u'blue']","[u'left', u'middle', u'right']","[0.9, 0.5, 0.1]","[u'low', u'medium', u'high']","red",49,"left","low","False","False",1041,1350,NA
"A2H8I5RMCV8F9H","Fri Oct 02 2020 10:27:34 GMT-0400 (Eastern Daylight Time)","Fri Oct 02 2020 10:35:55 GMT-0400 (Eastern Daylight Time)","Mozilla/5.0 (Windows NT 6.3; Win64; x64) AppleWebKit/537.36 (KHTML, like Gecko) Chrome/85.0.4183.121 Safari/537.36",34,"[0.9, 0.5, 0.1]","[0.8, 0.4, 0.2]","[u'red', u'black', u'blue']","[u'left', u'middle', u'right']","[0.9, 0.5, 0.1]","[u'low', u'medium', u'high']","blue",51,"right","high","True","False",635,1450,NA
"A2H8I5RMCV8F9H","Fri Oct 02 2020 10:27:34 GMT-0400 (Eastern Daylight Time)","Fri Oct 02 2020 10:35:55 GMT-0400 (Eastern Daylight Time)","Mozilla/5.0 (Windows NT 6.3; Win64; x64) AppleWebKit/537.36 (KHTML, like Gecko) Chrome/85.0.4183.121 Safari/537.36",35,"[0.9, 0.5, 0.1]","[0.8, 0.4, 0.2]","[u'red', u'black', u'blue']","[u'left', u'middle', u'right']","[0.9, 0.5, 0.1]","[u'low', u'medium', u'high']","blue",51,"right","high","True","False",783,1550,NA
"A2H8I5RMCV8F9H","Fri Oct 02 2020 10:27:34 GMT-0400 (Eastern Daylight Time)","Fri Oct 02 2020 10:35:55 GMT-0400 (Eastern Daylight Time)","Mozilla/5.0 (Windows NT 6.3; Win64; x64) AppleWebKit/537.36 (KHTML, like Gecko) Chrome/85.0.4183.121 Safari/537.36",36,"[0.9, 0.5, 0.1]","[0.8, 0.4, 0.2]","[u'red', u'black', u'blue']","[u'left', u'middle', u'right']","[0.9, 0.5, 0.1]","[u'low', u'medium', u'high']","blue",51,"right","high","True","False",680,1650,NA
"A2H8I5RMCV8F9H","Fri Oct 02 2020 10:27:34 GMT-0400 (Eastern Daylight Time)","Fri Oct 02 2020 10:35:55 GMT-0400 (Eastern Daylight Time)","Mozilla/5.0 (Windows NT 6.3; Win64; x64) AppleWebKit/537.36 (KHTML, like Gecko) Chrome/85.0.4183.121 Safari/537.36",37,"[0.9, 0.5, 0.1]","[0.8, 0.4, 0.2]","[u'red', u'black', u'blue']","[u'left', u'middle', u'right']","[0.9, 0.5, 0.1]","[u'low', u'medium', u'high']","blue",51,"right","high","True","False",603,1750,NA
"A2H8I5RMCV8F9H","Fri Oct 02 2020 10:27:34 GMT-0400 (Eastern Daylight Time)","Fri Oct 02 2020 10:35:55 GMT-0400 (Eastern Daylight Time)","Mozilla/5.0 (Windows NT 6.3; Win64; x64) AppleWebKit/537.36 (KHTML, like Gecko) Chrome/85.0.4183.121 Safari/537.36",38,"[0.9, 0.5, 0.1]","[0.8, 0.4, 0.2]","[u'red', u'black', u'blue']","[u'left', u'middle', u'right']","[0.9, 0.5, 0.1]","[u'low', u'medium', u'high']","blue",51,"right","high","True","False",638,1850,NA
"A2H8I5RMCV8F9H","Fri Oct 02 2020 10:27:34 GMT-0400 (Eastern Daylight Time)","Fri Oct 02 2020 10:35:55 GMT-0400 (Eastern Daylight Time)","Mozilla/5.0 (Windows NT 6.3; Win64; x64) AppleWebKit/537.36 (KHTML, like Gecko) Chrome/85.0.4183.121 Safari/537.36",39,"[0.9, 0.5, 0.1]","[0.8, 0.4, 0.2]","[u'red', u'black', u'blue']","[u'left', u'middle', u'right']","[0.9, 0.5, 0.1]","[u'low', u'medium', u'high']","blue",51,"right","high","True","False",687,1950,NA
"A2H8I5RMCV8F9H","Fri Oct 02 2020 10:27:34 GMT-0400 (Eastern Daylight Time)","Fri Oct 02 2020 10:35:55 GMT-0400 (Eastern Daylight Time)","Mozilla/5.0 (Windows NT 6.3; Win64; x64) AppleWebKit/537.36 (KHTML, like Gecko) Chrome/85.0.4183.121 Safari/537.36",40,"[0.9, 0.5, 0.1]","[0.8, 0.4, 0.2]","[u'red', u'black', u'blue']","[u'left', u'middle', u'right']","[0.9, 0.5, 0.1]","[u'low', u'medium', u'high']","blue",51,"right","high","True","False",295,2050,NA
"A2H8I5RMCV8F9H","Fri Oct 02 2020 10:27:34 GMT-0400 (Eastern Daylight Time)","Fri Oct 02 2020 10:35:55 GMT-0400 (Eastern Daylight Time)","Mozilla/5.0 (Windows NT 6.3; Win64; x64) AppleWebKit/537.36 (KHTML, like Gecko) Chrome/85.0.4183.121 Safari/537.36",41,"[0.9, 0.5, 0.1]","[0.8, 0.4, 0.2]","[u'red', u'black', u'blue']","[u'left', u'middle', u'right']","[0.9, 0.5, 0.1]","[u'medium', u'high', u'low']","blue",51,"right","low","False","False",641,2000,NA
"A2H8I5RMCV8F9H","Fri Oct 02 2020 10:27:34 GMT-0400 (Eastern Daylight Time)","Fri Oct 02 2020 10:35:55 GMT-0400 (Eastern Daylight Time)","Mozilla/5.0 (Windows NT 6.3; Win64; x64) AppleWebKit/537.36 (KHTML, like Gecko) Chrome/85.0.4183.121 Safari/537.36",42,"[0.9, 0.5, 0.1]","[0.8, 0.4, 0.2]","[u'red', u'black', u'blue']","[u'left', u'middle', u'right']","[0.9, 0.5, 0.1]","[u'medium', u'high', u'low']","black",50,"middle","high","True","False",576,2100,NA
"A2H8I5RMCV8F9H","Fri Oct 02 2020 10:27:34 GMT-0400 (Eastern Daylight Time)","Fri Oct 02 2020 10:35:55 GMT-0400 (Eastern Daylight Time)","Mozilla/5.0 (Windows NT 6.3; Win64; x64) AppleWebKit/537.36 (KHTML, like Gecko) Chrome/85.0.4183.121 Safari/537.36",43,"[0.9, 0.5, 0.1]","[0.8, 0.4, 0.2]","[u'red', u'black', u'blue']","[u'left', u'middle', u'right']","[0.9, 0.5, 0.1]","[u'medium', u'high', u'low']","black",50,"middle","high","True","False",641,2200,NA
"A2H8I5RMCV8F9H","Fri Oct 02 2020 10:27:34 GMT-0400 (Eastern Daylight Time)","Fri Oct 02 2020 10:35:55 GMT-0400 (Eastern Daylight Time)","Mozilla/5.0 (Windows NT 6.3; Win64; x64) AppleWebKit/537.36 (KHTML, like Gecko) Chrome/85.0.4183.121 Safari/537.36",44,"[0.9, 0.5, 0.1]","[0.8, 0.4, 0.2]","[u'red', u'black', u'blue']","[u'left', u'middle', u'right']","[0.9, 0.5, 0.1]","[u'medium', u'high', u'low']","black",50,"middle","high","True","False",662,2300,NA
"A2H8I5RMCV8F9H","Fri Oct 02 2020 10:27:34 GMT-0400 (Eastern Daylight Time)","Fri Oct 02 2020 10:35:55 GMT-0400 (Eastern Daylight Time)","Mozilla/5.0 (Windows NT 6.3; Win64; x64) AppleWebKit/537.36 (KHTML, like Gecko) Chrome/85.0.4183.121 Safari/537.36",45,"[0.9, 0.5, 0.1]","[0.8, 0.4, 0.2]","[u'red', u'black', u'blue']","[u'left', u'middle', u'right']","[0.9, 0.5, 0.1]","[u'medium', u'high', u'low']","black",50,"middle","high","True","False",656,2400,NA
"A2H8I5RMCV8F9H","Fri Oct 02 2020 10:27:34 GMT-0400 (Eastern Daylight Time)","Fri Oct 02 2020 10:35:55 GMT-0400 (Eastern Daylight Time)","Mozilla/5.0 (Windows NT 6.3; Win64; x64) AppleWebKit/537.36 (KHTML, like Gecko) Chrome/85.0.4183.121 Safari/537.36",46,"[0.9, 0.5, 0.1]","[0.8, 0.4, 0.2]","[u'red', u'black', u'blue']","[u'left', u'middle', u'right']","[0.9, 0.5, 0.1]","[u'medium', u'high', u'low']","black",50,"middle","high","True","False",629,2500,NA
"A2H8I5RMCV8F9H","Fri Oct 02 2020 10:27:34 GMT-0400 (Eastern Daylight Time)","Fri Oct 02 2020 10:35:55 GMT-0400 (Eastern Daylight Time)","Mozilla/5.0 (Windows NT 6.3; Win64; x64) AppleWebKit/537.36 (KHTML, like Gecko) Chrome/85.0.4183.121 Safari/537.36",47,"[0.9, 0.5, 0.1]","[0.8, 0.4, 0.2]","[u'red', u'black', u'blue']","[u'left', u'middle', u'right']","[0.9, 0.5, 0.1]","[u'medium', u'high', u'low']","black",50,"middle","high","True","False",195,2600,NA
"A2H8I5RMCV8F9H","Fri Oct 02 2020 10:27:34 GMT-0400 (Eastern Daylight Time)","Fri Oct 02 2020 10:35:55 GMT-0400 (Eastern Daylight Time)","Mozilla/5.0 (Windows NT 6.3; Win64; x64) AppleWebKit/537.36 (KHTML, like Gecko) Chrome/85.0.4183.121 Safari/537.36",48,"[0.9, 0.5, 0.1]","[0.8, 0.4, 0.2]","[u'red', u'black', u'blue']","[u'left', u'middle', u'right']","[0.9, 0.5, 0.1]","[u'medium', u'high', u'low']","black",50,"middle","high","True","False",331,2700,NA
"A2H8I5RMCV8F9H","Fri Oct 02 2020 10:27:34 GMT-0400 (Eastern Daylight Time)","Fri Oct 02 2020 10:35:55 GMT-0400 (Eastern Daylight Time)","Mozilla/5.0 (Windows NT 6.3; Win64; x64) AppleWebKit/537.36 (KHTML, like Gecko) Chrome/85.0.4183.121 Safari/537.36",49,"[0.9, 0.5, 0.1]","[0.8, 0.4, 0.2]","[u'red', u'black', u'blue']","[u'left', u'middle', u'right']","[0.9, 0.5, 0.1]","[u'medium', u'high', u'low']","black",50,"middle","high","True","False",323,2800,NA
"A2H8I5RMCV8F9H","Fri Oct 02 2020 10:27:34 GMT-0400 (Eastern Daylight Time)","Fri Oct 02 2020 10:35:55 GMT-0400 (Eastern Daylight Time)","Mozilla/5.0 (Windows NT 6.3; Win64; x64) AppleWebKit/537.36 (KHTML, like Gecko) Chrome/85.0.4183.121 Safari/537.36",50,"[0.9, 0.5, 0.1]","[0.8, 0.4, 0.2]","[u'red', u'black', u'blue']","[u'left', u'middle', u'right']","[0.9, 0.5, 0.1]","[u'medium', u'high', u'low']","black",50,"middle","high","True","True",566,2900,NA
"A2H8I5RMCV8F9H","Fri Oct 02 2020 10:27:34 GMT-0400 (Eastern Daylight Time)","Fri Oct 02 2020 10:35:55 GMT-0400 (Eastern Daylight Time)","Mozilla/5.0 (Windows NT 6.3; Win64; x64) AppleWebKit/537.36 (KHTML, like Gecko) Chrome/85.0.4183.121 Safari/537.36",51,"[0.9, 0.5, 0.1]","[0.8, 0.4, 0.2]","[u'red', u'black', u'blue']","[u'left', u'middle', u'right']","[0.9, 0.5, 0.1]","[u'high', u'medium', u'low']","black",50,"middle","medium","False","False",625,2850,NA
"A2H8I5RMCV8F9H","Fri Oct 02 2020 10:27:34 GMT-0400 (Eastern Daylight Time)","Fri Oct 02 2020 10:35:55 GMT-0400 (Eastern Daylight Time)","Mozilla/5.0 (Windows NT 6.3; Win64; x64) AppleWebKit/537.36 (KHTML, like Gecko) Chrome/85.0.4183.121 Safari/537.36",52,"[0.9, 0.5, 0.1]","[0.8, 0.4, 0.2]","[u'red', u'black', u'blue']","[u'left', u'middle', u'right']","[0.9, 0.5, 0.1]","[u'high', u'medium', u'low']","red",49,"left","high","True","False",100,2950,NA
"A2H8I5RMCV8F9H","Fri Oct 02 2020 10:27:34 GMT-0400 (Eastern Daylight Time)","Fri Oct 02 2020 10:35:55 GMT-0400 (Eastern Daylight Time)","Mozilla/5.0 (Windows NT 6.3; Win64; x64) AppleWebKit/537.36 (KHTML, like Gecko) Chrome/85.0.4183.121 Safari/537.36",53,"[0.9, 0.5, 0.1]","[0.8, 0.4, 0.2]","[u'red', u'black', u'blue']","[u'left', u'middle', u'right']","[0.9, 0.5, 0.1]","[u'high', u'medium', u'low']","red",49,"left","high","True","False",437,3050,NA
"A2H8I5RMCV8F9H","Fri Oct 02 2020 10:27:34 GMT-0400 (Eastern Daylight Time)","Fri Oct 02 2020 10:35:55 GMT-0400 (Eastern Daylight Time)","Mozilla/5.0 (Windows NT 6.3; Win64; x64) AppleWebKit/537.36 (KHTML, like Gecko) Chrome/85.0.4183.121 Safari/537.36",54,"[0.9, 0.5, 0.1]","[0.8, 0.4, 0.2]","[u'red', u'black', u'blue']","[u'left', u'middle', u'right']","[0.9, 0.5, 0.1]","[u'high', u'medium', u'low']","red",49,"left","high","True","False",586,3150,NA
"A2H8I5RMCV8F9H","Fri Oct 02 2020 10:27:34 GMT-0400 (Eastern Daylight Time)","Fri Oct 02 2020 10:35:55 GMT-0400 (Eastern Daylight Time)","Mozilla/5.0 (Windows NT 6.3; Win64; x64) AppleWebKit/537.36 (KHTML, like Gecko) Chrome/85.0.4183.121 Safari/537.36",55,"[0.9, 0.5, 0.1]","[0.8, 0.4, 0.2]","[u'red', u'black', u'blue']","[u'left', u'middle', u'right']","[0.9, 0.5, 0.1]","[u'high', u'medium', u'low']","red",49,"left","high","True","False",615,3250,NA
"A2H8I5RMCV8F9H","Fri Oct 02 2020 10:27:34 GMT-0400 (Eastern Daylight Time)","Fri Oct 02 2020 10:35:55 GMT-0400 (Eastern Daylight Time)","Mozilla/5.0 (Windows NT 6.3; Win64; x64) AppleWebKit/537.36 (KHTML, like Gecko) Chrome/85.0.4183.121 Safari/537.36",56,"[0.9, 0.5, 0.1]","[0.8, 0.4, 0.2]","[u'red', u'black', u'blue']","[u'left', u'middle', u'right']","[0.9, 0.5, 0.1]","[u'high', u'medium', u'low']","red",49,"left","high","True","False",484,3350,NA
"A2H8I5RMCV8F9H","Fri Oct 02 2020 10:27:34 GMT-0400 (Eastern Daylight Time)","Fri Oct 02 2020 10:35:55 GMT-0400 (Eastern Daylight Time)","Mozilla/5.0 (Windows NT 6.3; Win64; x64) AppleWebKit/537.36 (KHTML, like Gecko) Chrome/85.0.4183.121 Safari/537.36",57,"[0.9, 0.5, 0.1]","[0.8, 0.4, 0.2]","[u'red', u'black', u'blue']","[u'left', u'middle', u'right']","[0.9, 0.5, 0.1]","[u'high', u'medium', u'low']","red",49,"left","high","True","False",407,3450,NA
"A2H8I5RMCV8F9H","Fri Oct 02 2020 10:27:34 GMT-0400 (Eastern Daylight Time)","Fri Oct 02 2020 10:35:55 GMT-0400 (Eastern Daylight Time)","Mozilla/5.0 (Windows NT 6.3; Win64; x64) AppleWebKit/537.36 (KHTML, like Gecko) Chrome/85.0.4183.121 Safari/537.36",58,"[0.9, 0.5, 0.1]","[0.8, 0.4, 0.2]","[u'red', u'black', u'blue']","[u'left', u'middle', u'right']","[0.9, 0.5, 0.1]","[u'high', u'medium', u'low']","red",49,"left","high","True","False",573,3550,NA
"A2H8I5RMCV8F9H","Fri Oct 02 2020 10:27:34 GMT-0400 (Eastern Daylight Time)","Fri Oct 02 2020 10:35:55 GMT-0400 (Eastern Daylight Time)","Mozilla/5.0 (Windows NT 6.3; Win64; x64) AppleWebKit/537.36 (KHTML, like Gecko) Chrome/85.0.4183.121 Safari/537.36",59,"[0.9, 0.5, 0.1]","[0.8, 0.4, 0.2]","[u'red', u'black', u'blue']","[u'left', u'middle', u'right']","[0.9, 0.5, 0.1]","[u'high', u'medium', u'low']","red",49,"left","high","True","False",750,3650,NA
"A2H8I5RMCV8F9H","Fri Oct 02 2020 10:27:34 GMT-0400 (Eastern Daylight Time)","Fri Oct 02 2020 10:35:55 GMT-0400 (Eastern Daylight Time)","Mozilla/5.0 (Windows NT 6.3; Win64; x64) AppleWebKit/537.36 (KHTML, like Gecko) Chrome/85.0.4183.121 Safari/537.36",60,"[0.9, 0.5, 0.1]","[0.8, 0.4, 0.2]","[u'red', u'black', u'blue']","[u'left', u'middle', u'right']","[0.9, 0.5, 0.1]","[u'high', u'medium', u'low']","red",49,"left","high","True","True",687,3750,NA
"A2H8I5RMCV8F9H","Fri Oct 02 2020 10:27:34 GMT-0400 (Eastern Daylight Time)","Fri Oct 02 2020 10:35:55 GMT-0400 (Eastern Daylight Time)","Mozilla/5.0 (Windows NT 6.3; Win64; x64) AppleWebKit/537.36 (KHTML, like Gecko) Chrome/85.0.4183.121 Safari/537.36",61,"[0.9, 0.5, 0.1]","[0.8, 0.4, 0.2]","[u'red', u'black', u'blue']","[u'left', u'middle', u'right']","[0.9, 0.5, 0.1]","[u'low', u'high', u'medium']","red",49,"left","low","False","False",578,3700,NA
"A2H8I5RMCV8F9H","Fri Oct 02 2020 10:27:34 GMT-0400 (Eastern Daylight Time)","Fri Oct 02 2020 10:35:55 GMT-0400 (Eastern Daylight Time)","Mozilla/5.0 (Windows NT 6.3; Win64; x64) AppleWebKit/537.36 (KHTML, like Gecko) Chrome/85.0.4183.121 Safari/537.36",62,"[0.9, 0.5, 0.1]","[0.8, 0.4, 0.2]","[u'red', u'black', u'blue']","[u'left', u'middle', u'right']","[0.9, 0.5, 0.1]","[u'low', u'high', u'medium']","blue",51,"right","medium","True","False",340,3800,NA
"A2H8I5RMCV8F9H","Fri Oct 02 2020 10:27:34 GMT-0400 (Eastern Daylight Time)","Fri Oct 02 2020 10:35:55 GMT-0400 (Eastern Daylight Time)","Mozilla/5.0 (Windows NT 6.3; Win64; x64) AppleWebKit/537.36 (KHTML, like Gecko) Chrome/85.0.4183.121 Safari/537.36",63,"[0.9, 0.5, 0.1]","[0.8, 0.4, 0.2]","[u'red', u'black', u'blue']","[u'left', u'middle', u'right']","[0.9, 0.5, 0.1]","[u'low', u'high', u'medium']","blue",51,"right","medium","False","False",658,3750,NA
"A2H8I5RMCV8F9H","Fri Oct 02 2020 10:27:34 GMT-0400 (Eastern Daylight Time)","Fri Oct 02 2020 10:35:55 GMT-0400 (Eastern Daylight Time)","Mozilla/5.0 (Windows NT 6.3; Win64; x64) AppleWebKit/537.36 (KHTML, like Gecko) Chrome/85.0.4183.121 Safari/537.36",64,"[0.9, 0.5, 0.1]","[0.8, 0.4, 0.2]","[u'red', u'black', u'blue']","[u'left', u'middle', u'right']","[0.9, 0.5, 0.1]","[u'low', u'high', u'medium']","red",49,"left","low","False","False",297,3700,NA
"A2H8I5RMCV8F9H","Fri Oct 02 2020 10:27:34 GMT-0400 (Eastern Daylight Time)","Fri Oct 02 2020 10:35:55 GMT-0400 (Eastern Daylight Time)","Mozilla/5.0 (Windows NT 6.3; Win64; x64) AppleWebKit/537.36 (KHTML, like Gecko) Chrome/85.0.4183.121 Safari/537.36",65,"[0.9, 0.5, 0.1]","[0.8, 0.4, 0.2]","[u'red', u'black', u'blue']","[u'left', u'middle', u'right']","[0.9, 0.5, 0.1]","[u'low', u'high', u'medium']","black",50,"middle","high","True","False",282,3800,NA
"A2H8I5RMCV8F9H","Fri Oct 02 2020 10:27:34 GMT-0400 (Eastern Daylight Time)","Fri Oct 02 2020 10:35:55 GMT-0400 (Eastern Daylight Time)","Mozilla/5.0 (Windows NT 6.3; Win64; x64) AppleWebKit/537.36 (KHTML, like Gecko) Chrome/85.0.4183.121 Safari/537.36",66,"[0.9, 0.5, 0.1]","[0.8, 0.4, 0.2]","[u'red', u'black', u'blue']","[u'left', u'middle', u'right']","[0.9, 0.5, 0.1]","[u'low', u'high', u'medium']","black",50,"middle","high","False","False",625,3750,NA
"A2H8I5RMCV8F9H","Fri Oct 02 2020 10:27:34 GMT-0400 (Eastern Daylight Time)","Fri Oct 02 2020 10:35:55 GMT-0400 (Eastern Daylight Time)","Mozilla/5.0 (Windows NT 6.3; Win64; x64) AppleWebKit/537.36 (KHTML, like Gecko) Chrome/85.0.4183.121 Safari/537.36",67,"[0.9, 0.5, 0.1]","[0.8, 0.4, 0.2]","[u'red', u'black', u'blue']","[u'left', u'middle', u'right']","[0.9, 0.5, 0.1]","[u'low', u'high', u'medium']","red",49,"left","low","False","False",668,3700,NA
"A2H8I5RMCV8F9H","Fri Oct 02 2020 10:27:34 GMT-0400 (Eastern Daylight Time)","Fri Oct 02 2020 10:35:55 GMT-0400 (Eastern Daylight Time)","Mozilla/5.0 (Windows NT 6.3; Win64; x64) AppleWebKit/537.36 (KHTML, like Gecko) Chrome/85.0.4183.121 Safari/537.36",68,"[0.9, 0.5, 0.1]","[0.8, 0.4, 0.2]","[u'red', u'black', u'blue']","[u'left', u'middle', u'right']","[0.9, 0.5, 0.1]","[u'low', u'high', u'medium']","blue",51,"right","medium","True","False",861,3800,NA
"A2H8I5RMCV8F9H","Fri Oct 02 2020 10:27:34 GMT-0400 (Eastern Daylight Time)","Fri Oct 02 2020 10:35:55 GMT-0400 (Eastern Daylight Time)","Mozilla/5.0 (Windows NT 6.3; Win64; x64) AppleWebKit/537.36 (KHTML, like Gecko) Chrome/85.0.4183.121 Safari/537.36",69,"[0.9, 0.5, 0.1]","[0.8, 0.4, 0.2]","[u'red', u'black', u'blue']","[u'left', u'middle', u'right']","[0.9, 0.5, 0.1]","[u'low', u'high', u'medium']","blue",51,"right","medium","False","False",579,3750,NA
"A2H8I5RMCV8F9H","Fri Oct 02 2020 10:27:34 GMT-0400 (Eastern Daylight Time)","Fri Oct 02 2020 10:35:55 GMT-0400 (Eastern Daylight Time)","Mozilla/5.0 (Windows NT 6.3; Win64; x64) AppleWebKit/537.36 (KHTML, like Gecko) Chrome/85.0.4183.121 Safari/537.36",70,"[0.9, 0.5, 0.1]","[0.8, 0.4, 0.2]","[u'red', u'black', u'blue']","[u'left', u'middle', u'right']","[0.9, 0.5, 0.1]","[u'low', u'high', u'medium']","red",49,"left","low","False","False",688,3700,NA
"A2H8I5RMCV8F9H","Fri Oct 02 2020 10:27:34 GMT-0400 (Eastern Daylight Time)","Fri Oct 02 2020 10:35:55 GMT-0400 (Eastern Daylight Time)","Mozilla/5.0 (Windows NT 6.3; Win64; x64) AppleWebKit/537.36 (KHTML, like Gecko) Chrome/85.0.4183.121 Safari/537.36",71,"[0.9, 0.5, 0.1]","[0.8, 0.4, 0.2]","[u'red', u'black', u'blue']","[u'left', u'middle', u'right']","[0.9, 0.5, 0.1]","[u'low', u'high', u'medium']","black",50,"middle","high","False","False",1417,3650,NA
"A2H8I5RMCV8F9H","Fri Oct 02 2020 10:27:34 GMT-0400 (Eastern Daylight Time)","Fri Oct 02 2020 10:35:55 GMT-0400 (Eastern Daylight Time)","Mozilla/5.0 (Windows NT 6.3; Win64; x64) AppleWebKit/537.36 (KHTML, like Gecko) Chrome/85.0.4183.121 Safari/537.36",72,"[0.9, 0.5, 0.1]","[0.8, 0.4, 0.2]","[u'red', u'black', u'blue']","[u'left', u'middle', u'right']","[0.9, 0.5, 0.1]","[u'low', u'high', u'medium']","blue",51,"right","medium","False","False",630,3600,NA
"A2H8I5RMCV8F9H","Fri Oct 02 2020 10:27:34 GMT-0400 (Eastern Daylight Time)","Fri Oct 02 2020 10:35:55 GMT-0400 (Eastern Daylight Time)","Mozilla/5.0 (Windows NT 6.3; Win64; x64) AppleWebKit/537.36 (KHTML, like Gecko) Chrome/85.0.4183.121 Safari/537.36",73,"[0.9, 0.5, 0.1]","[0.8, 0.4, 0.2]","[u'red', u'black', u'blue']","[u'left', u'middle', u'right']","[0.9, 0.5, 0.1]","[u'low', u'high', u'medium']","red",49,"left","low","False","False",594,3550,NA
"A2H8I5RMCV8F9H","Fri Oct 02 2020 10:27:34 GMT-0400 (Eastern Daylight Time)","Fri Oct 02 2020 10:35:55 GMT-0400 (Eastern Daylight Time)","Mozilla/5.0 (Windows NT 6.3; Win64; x64) AppleWebKit/537.36 (KHTML, like Gecko) Chrome/85.0.4183.121 Safari/537.36",74,"[0.9, 0.5, 0.1]","[0.8, 0.4, 0.2]","[u'red', u'black', u'blue']","[u'left', u'middle', u'right']","[0.9, 0.5, 0.1]","[u'low', u'high', u'medium']","blue",51,"right","medium","True","False",3249,3650,NA
"A2H8I5RMCV8F9H","Fri Oct 02 2020 10:27:34 GMT-0400 (Eastern Daylight Time)","Fri Oct 02 2020 10:35:55 GMT-0400 (Eastern Daylight Time)","Mozilla/5.0 (Windows NT 6.3; Win64; x64) AppleWebKit/537.36 (KHTML, like Gecko) Chrome/85.0.4183.121 Safari/537.36",75,"[0.9, 0.5, 0.1]","[0.8, 0.4, 0.2]","[u'red', u'black', u'blue']","[u'left', u'middle', u'right']","[0.9, 0.5, 0.1]","[u'low', u'high', u'medium']","black",50,"middle","high","True","False",1419,3750,NA
"A2H8I5RMCV8F9H","Fri Oct 02 2020 10:27:34 GMT-0400 (Eastern Daylight Time)","Fri Oct 02 2020 10:35:55 GMT-0400 (Eastern Daylight Time)","Mozilla/5.0 (Windows NT 6.3; Win64; x64) AppleWebKit/537.36 (KHTML, like Gecko) Chrome/85.0.4183.121 Safari/537.36",76,"[0.9, 0.5, 0.1]","[0.8, 0.4, 0.2]","[u'red', u'black', u'blue']","[u'left', u'middle', u'right']","[0.9, 0.5, 0.1]","[u'low', u'high', u'medium']","red",49,"left","low","False","False",1655,3700,NA
"A2H8I5RMCV8F9H","Fri Oct 02 2020 10:27:34 GMT-0400 (Eastern Daylight Time)","Fri Oct 02 2020 10:35:55 GMT-0400 (Eastern Daylight Time)","Mozilla/5.0 (Windows NT 6.3; Win64; x64) AppleWebKit/537.36 (KHTML, like Gecko) Chrome/85.0.4183.121 Safari/537.36",77,"[0.9, 0.5, 0.1]","[0.8, 0.4, 0.2]","[u'red', u'black', u'blue']","[u'left', u'middle', u'right']","[0.9, 0.5, 0.1]","[u'low', u'high', u'medium']","black",50,"middle","high","True","False",2458,3800,NA
"A2H8I5RMCV8F9H","Fri Oct 02 2020 10:27:34 GMT-0400 (Eastern Daylight Time)","Fri Oct 02 2020 10:35:55 GMT-0400 (Eastern Daylight Time)","Mozilla/5.0 (Windows NT 6.3; Win64; x64) AppleWebKit/537.36 (KHTML, like Gecko) Chrome/85.0.4183.121 Safari/537.36",78,"[0.9, 0.5, 0.1]","[0.8, 0.4, 0.2]","[u'red', u'black', u'blue']","[u'left', u'middle', u'right']","[0.9, 0.5, 0.1]","[u'low', u'high', u'medium']","blue",51,"right","medium","True","False",3212,3900,NA
"A2H8I5RMCV8F9H","Fri Oct 02 2020 10:27:34 GMT-0400 (Eastern Daylight Time)","Fri Oct 02 2020 10:35:55 GMT-0400 (Eastern Daylight Time)","Mozilla/5.0 (Windows NT 6.3; Win64; x64) AppleWebKit/537.36 (KHTML, like Gecko) Chrome/85.0.4183.121 Safari/537.36",79,"[0.9, 0.5, 0.1]","[0.8, 0.4, 0.2]","[u'red', u'black', u'blue']","[u'left', u'middle', u'right']","[0.9, 0.5, 0.1]","[u'low', u'high', u'medium']","red",49,"left","low","False","False",1550,3850,NA
"A2H8I5RMCV8F9H","Fri Oct 02 2020 10:27:34 GMT-0400 (Eastern Daylight Time)","Fri Oct 02 2020 10:35:55 GMT-0400 (Eastern Daylight Time)","Mozilla/5.0 (Windows NT 6.3; Win64; x64) AppleWebKit/537.36 (KHTML, like Gecko) Chrome/85.0.4183.121 Safari/537.36",80,"[0.9, 0.5, 0.1]","[0.8, 0.4, 0.2]","[u'red', u'black', u'blue']","[u'left', u'middle', u'right']","[0.9, 0.5, 0.1]","[u'low', u'high', u'medium']","black",50,"middle","high","True","False",1456,3950,NA
"A2H8I5RMCV8F9H","Fri Oct 02 2020 10:27:34 GMT-0400 (Eastern Daylight Time)","Fri Oct 02 2020 10:35:55 GMT-0400 (Eastern Daylight Time)","Mozilla/5.0 (Windows NT 6.3; Win64; x64) AppleWebKit/537.36 (KHTML, like Gecko) Chrome/85.0.4183.121 Safari/537.36",81,"[0.9, 0.5, 0.1]","[0.8, 0.4, 0.2]","[u'red', u'black', u'blue']","[u'left', u'middle', u'right']","[0.8, 0.4, 0.2]","[u'medium', u'low', u'high']","black",50,"middle","low","False","False",883,3900,NA
"A2H8I5RMCV8F9H","Fri Oct 02 2020 10:27:34 GMT-0400 (Eastern Daylight Time)","Fri Oct 02 2020 10:35:55 GMT-0400 (Eastern Daylight Time)","Mozilla/5.0 (Windows NT 6.3; Win64; x64) AppleWebKit/537.36 (KHTML, like Gecko) Chrome/85.0.4183.121 Safari/537.36",82,"[0.9, 0.5, 0.1]","[0.8, 0.4, 0.2]","[u'red', u'black', u'blue']","[u'left', u'middle', u'right']","[0.8, 0.4, 0.2]","[u'medium', u'low', u'high']","blue",51,"right","high","True","False",507,4000,NA
"A2H8I5RMCV8F9H","Fri Oct 02 2020 10:27:34 GMT-0400 (Eastern Daylight Time)","Fri Oct 02 2020 10:35:55 GMT-0400 (Eastern Daylight Time)","Mozilla/5.0 (Windows NT 6.3; Win64; x64) AppleWebKit/537.36 (KHTML, like Gecko) Chrome/85.0.4183.121 Safari/537.36",83,"[0.9, 0.5, 0.1]","[0.8, 0.4, 0.2]","[u'red', u'black', u'blue']","[u'left', u'middle', u'right']","[0.8, 0.4, 0.2]","[u'medium', u'low', u'high']","red",49,"left","medium","False","False",639,3950,NA
"A2H8I5RMCV8F9H","Fri Oct 02 2020 10:27:34 GMT-0400 (Eastern Daylight Time)","Fri Oct 02 2020 10:35:55 GMT-0400 (Eastern Daylight Time)","Mozilla/5.0 (Windows NT 6.3; Win64; x64) AppleWebKit/537.36 (KHTML, like Gecko) Chrome/85.0.4183.121 Safari/537.36",84,"[0.9, 0.5, 0.1]","[0.8, 0.4, 0.2]","[u'red', u'black', u'blue']","[u'left', u'middle', u'right']","[0.8, 0.4, 0.2]","[u'medium', u'low', u'high']","blue",51,"right","high","True","False",174,4050,NA
"A2H8I5RMCV8F9H","Fri Oct 02 2020 10:27:34 GMT-0400 (Eastern Daylight Time)","Fri Oct 02 2020 10:35:55 GMT-0400 (Eastern Daylight Time)","Mozilla/5.0 (Windows NT 6.3; Win64; x64) AppleWebKit/537.36 (KHTML, like Gecko) Chrome/85.0.4183.121 Safari/537.36",85,"[0.9, 0.5, 0.1]","[0.8, 0.4, 0.2]","[u'red', u'black', u'blue']","[u'left', u'middle', u'right']","[0.8, 0.4, 0.2]","[u'medium', u'low', u'high']","blue",51,"right","high","True","False",637,4150,NA
"A2H8I5RMCV8F9H","Fri Oct 02 2020 10:27:34 GMT-0400 (Eastern Daylight Time)","Fri Oct 02 2020 10:35:55 GMT-0400 (Eastern Daylight Time)","Mozilla/5.0 (Windows NT 6.3; Win64; x64) AppleWebKit/537.36 (KHTML, like Gecko) Chrome/85.0.4183.121 Safari/537.36",86,"[0.9, 0.5, 0.1]","[0.8, 0.4, 0.2]","[u'red', u'black', u'blue']","[u'left', u'middle', u'right']","[0.8, 0.4, 0.2]","[u'medium', u'low', u'high']","blue",51,"right","high","True","False",594,4250,NA
"A2H8I5RMCV8F9H","Fri Oct 02 2020 10:27:34 GMT-0400 (Eastern Daylight Time)","Fri Oct 02 2020 10:35:55 GMT-0400 (Eastern Daylight Time)","Mozilla/5.0 (Windows NT 6.3; Win64; x64) AppleWebKit/537.36 (KHTML, like Gecko) Chrome/85.0.4183.121 Safari/537.36",87,"[0.9, 0.5, 0.1]","[0.8, 0.4, 0.2]","[u'red', u'black', u'blue']","[u'left', u'middle', u'right']","[0.8, 0.4, 0.2]","[u'medium', u'low', u'high']","blue",51,"right","high","True","False",609,4350,NA
"A2H8I5RMCV8F9H","Fri Oct 02 2020 10:27:34 GMT-0400 (Eastern Daylight Time)","Fri Oct 02 2020 10:35:55 GMT-0400 (Eastern Daylight Time)","Mozilla/5.0 (Windows NT 6.3; Win64; x64) AppleWebKit/537.36 (KHTML, like Gecko) Chrome/85.0.4183.121 Safari/537.36",88,"[0.9, 0.5, 0.1]","[0.8, 0.4, 0.2]","[u'red', u'black', u'blue']","[u'left', u'middle', u'right']","[0.8, 0.4, 0.2]","[u'medium', u'low', u'high']","blue",51,"right","high","True","False",721,4450,NA
"A2H8I5RMCV8F9H","Fri Oct 02 2020 10:27:34 GMT-0400 (Eastern Daylight Time)","Fri Oct 02 2020 10:35:55 GMT-0400 (Eastern Daylight Time)","Mozilla/5.0 (Windows NT 6.3; Win64; x64) AppleWebKit/537.36 (KHTML, like Gecko) Chrome/85.0.4183.121 Safari/537.36",89,"[0.9, 0.5, 0.1]","[0.8, 0.4, 0.2]","[u'red', u'black', u'blue']","[u'left', u'middle', u'right']","[0.8, 0.4, 0.2]","[u'medium', u'low', u'high']","blue",51,"right","high","True","False",700,4550,NA
"A2H8I5RMCV8F9H","Fri Oct 02 2020 10:27:34 GMT-0400 (Eastern Daylight Time)","Fri Oct 02 2020 10:35:55 GMT-0400 (Eastern Daylight Time)","Mozilla/5.0 (Windows NT 6.3; Win64; x64) AppleWebKit/537.36 (KHTML, like Gecko) Chrome/85.0.4183.121 Safari/537.36",90,"[0.9, 0.5, 0.1]","[0.8, 0.4, 0.2]","[u'red', u'black', u'blue']","[u'left', u'middle', u'right']","[0.8, 0.4, 0.2]","[u'medium', u'low', u'high']","blue",51,"right","high","True","False",641,4650,NA
"A2H8I5RMCV8F9H","Fri Oct 02 2020 10:27:34 GMT-0400 (Eastern Daylight Time)","Fri Oct 02 2020 10:35:55 GMT-0400 (Eastern Daylight Time)","Mozilla/5.0 (Windows NT 6.3; Win64; x64) AppleWebKit/537.36 (KHTML, like Gecko) Chrome/85.0.4183.121 Safari/537.36",91,"[0.9, 0.5, 0.1]","[0.8, 0.4, 0.2]","[u'red', u'black', u'blue']","[u'left', u'middle', u'right']","[0.8, 0.4, 0.2]","[u'medium', u'low', u'high']","blue",51,"right","high","True","True",172,4750,NA
"A2H8I5RMCV8F9H","Fri Oct 02 2020 10:27:34 GMT-0400 (Eastern Daylight Time)","Fri Oct 02 2020 10:35:55 GMT-0400 (Eastern Daylight Time)","Mozilla/5.0 (Windows NT 6.3; Win64; x64) AppleWebKit/537.36 (KHTML, like Gecko) Chrome/85.0.4183.121 Safari/537.36",92,"[0.9, 0.5, 0.1]","[0.8, 0.4, 0.2]","[u'red', u'black', u'blue']","[u'left', u'middle', u'right']","[0.8, 0.4, 0.2]","[u'medium', u'high', u'low']","blue",51,"right","low","False","False",545,4700,NA
"A2H8I5RMCV8F9H","Fri Oct 02 2020 10:27:34 GMT-0400 (Eastern Daylight Time)","Fri Oct 02 2020 10:35:55 GMT-0400 (Eastern Daylight Time)","Mozilla/5.0 (Windows NT 6.3; Win64; x64) AppleWebKit/537.36 (KHTML, like Gecko) Chrome/85.0.4183.121 Safari/537.36",93,"[0.9, 0.5, 0.1]","[0.8, 0.4, 0.2]","[u'red', u'black', u'blue']","[u'left', u'middle', u'right']","[0.8, 0.4, 0.2]","[u'medium', u'high', u'low']","black",50,"middle","high","True","False",786,4800,NA
"A2H8I5RMCV8F9H","Fri Oct 02 2020 10:27:34 GMT-0400 (Eastern Daylight Time)","Fri Oct 02 2020 10:35:55 GMT-0400 (Eastern Daylight Time)","Mozilla/5.0 (Windows NT 6.3; Win64; x64) AppleWebKit/537.36 (KHTML, like Gecko) Chrome/85.0.4183.121 Safari/537.36",94,"[0.9, 0.5, 0.1]","[0.8, 0.4, 0.2]","[u'red', u'black', u'blue']","[u'left', u'middle', u'right']","[0.8, 0.4, 0.2]","[u'medium', u'high', u'low']","black",50,"middle","high","True","False",589,4900,NA
"A2H8I5RMCV8F9H","Fri Oct 02 2020 10:27:34 GMT-0400 (Eastern Daylight Time)","Fri Oct 02 2020 10:35:55 GMT-0400 (Eastern Daylight Time)","Mozilla/5.0 (Windows NT 6.3; Win64; x64) AppleWebKit/537.36 (KHTML, like Gecko) Chrome/85.0.4183.121 Safari/537.36",95,"[0.9, 0.5, 0.1]","[0.8, 0.4, 0.2]","[u'red', u'black', u'blue']","[u'left', u'middle', u'right']","[0.8, 0.4, 0.2]","[u'medium', u'high', u'low']","black",50,"middle","high","True","False",640,5000,NA
"A2H8I5RMCV8F9H","Fri Oct 02 2020 10:27:34 GMT-0400 (Eastern Daylight Time)","Fri Oct 02 2020 10:35:55 GMT-0400 (Eastern Daylight Time)","Mozilla/5.0 (Windows NT 6.3; Win64; x64) AppleWebKit/537.36 (KHTML, like Gecko) Chrome/85.0.4183.121 Safari/537.36",96,"[0.9, 0.5, 0.1]","[0.8, 0.4, 0.2]","[u'red', u'black', u'blue']","[u'left', u'middle', u'right']","[0.8, 0.4, 0.2]","[u'medium', u'high', u'low']","black",50,"middle","high","True","False",594,5100,NA
"A2H8I5RMCV8F9H","Fri Oct 02 2020 10:27:34 GMT-0400 (Eastern Daylight Time)","Fri Oct 02 2020 10:35:55 GMT-0400 (Eastern Daylight Time)","Mozilla/5.0 (Windows NT 6.3; Win64; x64) AppleWebKit/537.36 (KHTML, like Gecko) Chrome/85.0.4183.121 Safari/537.36",97,"[0.9, 0.5, 0.1]","[0.8, 0.4, 0.2]","[u'red', u'black', u'blue']","[u'left', u'middle', u'right']","[0.8, 0.4, 0.2]","[u'medium', u'high', u'low']","black",50,"middle","high","True","False",641,5200,NA
"A2H8I5RMCV8F9H","Fri Oct 02 2020 10:27:34 GMT-0400 (Eastern Daylight Time)","Fri Oct 02 2020 10:35:55 GMT-0400 (Eastern Daylight Time)","Mozilla/5.0 (Windows NT 6.3; Win64; x64) AppleWebKit/537.36 (KHTML, like Gecko) Chrome/85.0.4183.121 Safari/537.36",98,"[0.9, 0.5, 0.1]","[0.8, 0.4, 0.2]","[u'red', u'black', u'blue']","[u'left', u'middle', u'right']","[0.8, 0.4, 0.2]","[u'medium', u'high', u'low']","black",50,"middle","high","True","False",499,5300,NA
"A2H8I5RMCV8F9H","Fri Oct 02 2020 10:27:34 GMT-0400 (Eastern Daylight Time)","Fri Oct 02 2020 10:35:55 GMT-0400 (Eastern Daylight Time)","Mozilla/5.0 (Windows NT 6.3; Win64; x64) AppleWebKit/537.36 (KHTML, like Gecko) Chrome/85.0.4183.121 Safari/537.36",99,"[0.9, 0.5, 0.1]","[0.8, 0.4, 0.2]","[u'red', u'black', u'blue']","[u'left', u'middle', u'right']","[0.8, 0.4, 0.2]","[u'medium', u'high', u'low']","black",50,"middle","high","True","False",266,5400,NA
"A2H8I5RMCV8F9H","Fri Oct 02 2020 10:27:34 GMT-0400 (Eastern Daylight Time)","Fri Oct 02 2020 10:35:55 GMT-0400 (Eastern Daylight Time)","Mozilla/5.0 (Windows NT 6.3; Win64; x64) AppleWebKit/537.36 (KHTML, like Gecko) Chrome/85.0.4183.121 Safari/537.36",100,"[0.9, 0.5, 0.1]","[0.8, 0.4, 0.2]","[u'red', u'black', u'blue']","[u'left', u'middle', u'right']","[0.8, 0.4, 0.2]","[u'medium', u'high', u'low']","black",50,"middle","high","True","False",609,5500,NA
"A2H8I5RMCV8F9H","Fri Oct 02 2020 10:27:34 GMT-0400 (Eastern Daylight Time)","Fri Oct 02 2020 10:35:55 GMT-0400 (Eastern Daylight Time)","Mozilla/5.0 (Windows NT 6.3; Win64; x64) AppleWebKit/537.36 (KHTML, like Gecko) Chrome/85.0.4183.121 Safari/537.36",101,"[0.9, 0.5, 0.1]","[0.8, 0.4, 0.2]","[u'red', u'black', u'blue']","[u'left', u'middle', u'right']","[0.8, 0.4, 0.2]","[u'medium', u'high', u'low']","black",50,"middle","high","True","True",747,5600,NA
"A2H8I5RMCV8F9H","Fri Oct 02 2020 10:27:34 GMT-0400 (Eastern Daylight Time)","Fri Oct 02 2020 10:35:55 GMT-0400 (Eastern Daylight Time)","Mozilla/5.0 (Windows NT 6.3; Win64; x64) AppleWebKit/537.36 (KHTML, like Gecko) Chrome/85.0.4183.121 Safari/537.36",102,"[0.9, 0.5, 0.1]","[0.8, 0.4, 0.2]","[u'red', u'black', u'blue']","[u'left', u'middle', u'right']","[0.8, 0.4, 0.2]","[u'high', u'low', u'medium']","black",50,"middle","low","False","False",416,5550,NA
"A2H8I5RMCV8F9H","Fri Oct 02 2020 10:27:34 GMT-0400 (Eastern Daylight Time)","Fri Oct 02 2020 10:35:55 GMT-0400 (Eastern Daylight Time)","Mozilla/5.0 (Windows NT 6.3; Win64; x64) AppleWebKit/537.36 (KHTML, like Gecko) Chrome/85.0.4183.121 Safari/537.36",103,"[0.9, 0.5, 0.1]","[0.8, 0.4, 0.2]","[u'red', u'black', u'blue']","[u'left', u'middle', u'right']","[0.8, 0.4, 0.2]","[u'high', u'low', u'medium']","blue",51,"right","medium","True","False",155,5650,NA
"A2H8I5RMCV8F9H","Fri Oct 02 2020 10:27:34 GMT-0400 (Eastern Daylight Time)","Fri Oct 02 2020 10:35:55 GMT-0400 (Eastern Daylight Time)","Mozilla/5.0 (Windows NT 6.3; Win64; x64) AppleWebKit/537.36 (KHTML, like Gecko) Chrome/85.0.4183.121 Safari/537.36",104,"[0.9, 0.5, 0.1]","[0.8, 0.4, 0.2]","[u'red', u'black', u'blue']","[u'left', u'middle', u'right']","[0.8, 0.4, 0.2]","[u'high', u'low', u'medium']","blue",51,"right","medium","True","False",693,5750,NA
"A2H8I5RMCV8F9H","Fri Oct 02 2020 10:27:34 GMT-0400 (Eastern Daylight Time)","Fri Oct 02 2020 10:35:55 GMT-0400 (Eastern Daylight Time)","Mozilla/5.0 (Windows NT 6.3; Win64; x64) AppleWebKit/537.36 (KHTML, like Gecko) Chrome/85.0.4183.121 Safari/537.36",105,"[0.9, 0.5, 0.1]","[0.8, 0.4, 0.2]","[u'red', u'black', u'blue']","[u'left', u'middle', u'right']","[0.8, 0.4, 0.2]","[u'high', u'low', u'medium']","blue",51,"right","medium","False","False",562,5700,NA
"A2H8I5RMCV8F9H","Fri Oct 02 2020 10:27:34 GMT-0400 (Eastern Daylight Time)","Fri Oct 02 2020 10:35:55 GMT-0400 (Eastern Daylight Time)","Mozilla/5.0 (Windows NT 6.3; Win64; x64) AppleWebKit/537.36 (KHTML, like Gecko) Chrome/85.0.4183.121 Safari/537.36",106,"[0.9, 0.5, 0.1]","[0.8, 0.4, 0.2]","[u'red', u'black', u'blue']","[u'left', u'middle', u'right']","[0.8, 0.4, 0.2]","[u'high', u'low', u'medium']","black",50,"middle","low","False","False",375,5650,NA
"A2H8I5RMCV8F9H","Fri Oct 02 2020 10:27:34 GMT-0400 (Eastern Daylight Time)","Fri Oct 02 2020 10:35:55 GMT-0400 (Eastern Daylight Time)","Mozilla/5.0 (Windows NT 6.3; Win64; x64) AppleWebKit/537.36 (KHTML, like Gecko) Chrome/85.0.4183.121 Safari/537.36",107,"[0.9, 0.5, 0.1]","[0.8, 0.4, 0.2]","[u'red', u'black', u'blue']","[u'left', u'middle', u'right']","[0.8, 0.4, 0.2]","[u'high', u'low', u'medium']","red",49,"left","high","True","False",125,5750,NA
"A2H8I5RMCV8F9H","Fri Oct 02 2020 10:27:34 GMT-0400 (Eastern Daylight Time)","Fri Oct 02 2020 10:35:55 GMT-0400 (Eastern Daylight Time)","Mozilla/5.0 (Windows NT 6.3; Win64; x64) AppleWebKit/537.36 (KHTML, like Gecko) Chrome/85.0.4183.121 Safari/537.36",108,"[0.9, 0.5, 0.1]","[0.8, 0.4, 0.2]","[u'red', u'black', u'blue']","[u'left', u'middle', u'right']","[0.8, 0.4, 0.2]","[u'high', u'low', u'medium']","red",49,"left","high","True","False",561,5850,NA
"A2H8I5RMCV8F9H","Fri Oct 02 2020 10:27:34 GMT-0400 (Eastern Daylight Time)","Fri Oct 02 2020 10:35:55 GMT-0400 (Eastern Daylight Time)","Mozilla/5.0 (Windows NT 6.3; Win64; x64) AppleWebKit/537.36 (KHTML, like Gecko) Chrome/85.0.4183.121 Safari/537.36",109,"[0.9, 0.5, 0.1]","[0.8, 0.4, 0.2]","[u'red', u'black', u'blue']","[u'left', u'middle', u'right']","[0.8, 0.4, 0.2]","[u'high', u'low', u'medium']","red",49,"left","high","False","False",687,5800,NA
"A2H8I5RMCV8F9H","Fri Oct 02 2020 10:27:34 GMT-0400 (Eastern Daylight Time)","Fri Oct 02 2020 10:35:55 GMT-0400 (Eastern Daylight Time)","Mozilla/5.0 (Windows NT 6.3; Win64; x64) AppleWebKit/537.36 (KHTML, like Gecko) Chrome/85.0.4183.121 Safari/537.36",110,"[0.9, 0.5, 0.1]","[0.8, 0.4, 0.2]","[u'red', u'black', u'blue']","[u'left', u'middle', u'right']","[0.8, 0.4, 0.2]","[u'high', u'low', u'medium']","blue",51,"right","medium","True","False",375,5900,NA
"A2H8I5RMCV8F9H","Fri Oct 02 2020 10:27:34 GMT-0400 (Eastern Daylight Time)","Fri Oct 02 2020 10:35:55 GMT-0400 (Eastern Daylight Time)","Mozilla/5.0 (Windows NT 6.3; Win64; x64) AppleWebKit/537.36 (KHTML, like Gecko) Chrome/85.0.4183.121 Safari/537.36",111,"[0.9, 0.5, 0.1]","[0.8, 0.4, 0.2]","[u'red', u'black', u'blue']","[u'left', u'middle', u'right']","[0.8, 0.4, 0.2]","[u'high', u'low', u'medium']","blue",51,"right","medium","True","False",625,6000,NA
"A2H8I5RMCV8F9H","Fri Oct 02 2020 10:27:34 GMT-0400 (Eastern Daylight Time)","Fri Oct 02 2020 10:35:55 GMT-0400 (Eastern Daylight Time)","Mozilla/5.0 (Windows NT 6.3; Win64; x64) AppleWebKit/537.36 (KHTML, like Gecko) Chrome/85.0.4183.121 Safari/537.36",112,"[0.9, 0.5, 0.1]","[0.8, 0.4, 0.2]","[u'red', u'black', u'blue']","[u'left', u'middle', u'right']","[0.8, 0.4, 0.2]","[u'high', u'low', u'medium']","black",50,"middle","low","False","False",453,5950,NA
"A2H8I5RMCV8F9H","Fri Oct 02 2020 10:27:34 GMT-0400 (Eastern Daylight Time)","Fri Oct 02 2020 10:35:55 GMT-0400 (Eastern Daylight Time)","Mozilla/5.0 (Windows NT 6.3; Win64; x64) AppleWebKit/537.36 (KHTML, like Gecko) Chrome/85.0.4183.121 Safari/537.36",113,"[0.9, 0.5, 0.1]","[0.8, 0.4, 0.2]","[u'red', u'black', u'blue']","[u'left', u'middle', u'right']","[0.8, 0.4, 0.2]","[u'high', u'low', u'medium']","blue",51,"right","medium","True","False",333,6050,NA
"A2H8I5RMCV8F9H","Fri Oct 02 2020 10:27:34 GMT-0400 (Eastern Daylight Time)","Fri Oct 02 2020 10:35:55 GMT-0400 (Eastern Daylight Time)","Mozilla/5.0 (Windows NT 6.3; Win64; x64) AppleWebKit/537.36 (KHTML, like Gecko) Chrome/85.0.4183.121 Safari/537.36",114,"[0.9, 0.5, 0.1]","[0.8, 0.4, 0.2]","[u'red', u'black', u'blue']","[u'left', u'middle', u'right']","[0.8, 0.4, 0.2]","[u'high', u'low', u'medium']","blue",51,"right","medium","False","False",680,6000,NA
"A2H8I5RMCV8F9H","Fri Oct 02 2020 10:27:34 GMT-0400 (Eastern Daylight Time)","Fri Oct 02 2020 10:35:55 GMT-0400 (Eastern Daylight Time)","Mozilla/5.0 (Windows NT 6.3; Win64; x64) AppleWebKit/537.36 (KHTML, like Gecko) Chrome/85.0.4183.121 Safari/537.36",115,"[0.9, 0.5, 0.1]","[0.8, 0.4, 0.2]","[u'red', u'black', u'blue']","[u'left', u'middle', u'right']","[0.8, 0.4, 0.2]","[u'high', u'low', u'medium']","red",49,"left","high","True","False",297,6100,NA
"A2H8I5RMCV8F9H","Fri Oct 02 2020 10:27:34 GMT-0400 (Eastern Daylight Time)","Fri Oct 02 2020 10:35:55 GMT-0400 (Eastern Daylight Time)","Mozilla/5.0 (Windows NT 6.3; Win64; x64) AppleWebKit/537.36 (KHTML, like Gecko) Chrome/85.0.4183.121 Safari/537.36",116,"[0.9, 0.5, 0.1]","[0.8, 0.4, 0.2]","[u'red', u'black', u'blue']","[u'left', u'middle', u'right']","[0.8, 0.4, 0.2]","[u'high', u'low', u'medium']","red",49,"left","high","True","False",735,6200,NA
"A2H8I5RMCV8F9H","Fri Oct 02 2020 10:27:34 GMT-0400 (Eastern Daylight Time)","Fri Oct 02 2020 10:35:55 GMT-0400 (Eastern Daylight Time)","Mozilla/5.0 (Windows NT 6.3; Win64; x64) AppleWebKit/537.36 (KHTML, like Gecko) Chrome/85.0.4183.121 Safari/537.36",117,"[0.9, 0.5, 0.1]","[0.8, 0.4, 0.2]","[u'red', u'black', u'blue']","[u'left', u'middle', u'right']","[0.8, 0.4, 0.2]","[u'high', u'low', u'medium']","red",49,"left","high","False","False",594,6150,NA
"A2H8I5RMCV8F9H","Fri Oct 02 2020 10:27:34 GMT-0400 (Eastern Daylight Time)","Fri Oct 02 2020 10:35:55 GMT-0400 (Eastern Daylight Time)","Mozilla/5.0 (Windows NT 6.3; Win64; x64) AppleWebKit/537.36 (KHTML, like Gecko) Chrome/85.0.4183.121 Safari/537.36",118,"[0.9, 0.5, 0.1]","[0.8, 0.4, 0.2]","[u'red', u'black', u'blue']","[u'left', u'middle', u'right']","[0.8, 0.4, 0.2]","[u'high', u'low', u'medium']","blue",51,"right","medium","False","False",996,6100,NA
"A2H8I5RMCV8F9H","Fri Oct 02 2020 10:27:34 GMT-0400 (Eastern Daylight Time)","Fri Oct 02 2020 10:35:55 GMT-0400 (Eastern Daylight Time)","Mozilla/5.0 (Windows NT 6.3; Win64; x64) AppleWebKit/537.36 (KHTML, like Gecko) Chrome/85.0.4183.121 Safari/537.36",119,"[0.9, 0.5, 0.1]","[0.8, 0.4, 0.2]","[u'red', u'black', u'blue']","[u'left', u'middle', u'right']","[0.8, 0.4, 0.2]","[u'high', u'low', u'medium']","black",50,"middle","low","False","False",754,6050,NA
"A2H8I5RMCV8F9H","Fri Oct 02 2020 10:27:34 GMT-0400 (Eastern Daylight Time)","Fri Oct 02 2020 10:35:55 GMT-0400 (Eastern Daylight Time)","Mozilla/5.0 (Windows NT 6.3; Win64; x64) AppleWebKit/537.36 (KHTML, like Gecko) Chrome/85.0.4183.121 Safari/537.36",120,"[0.9, 0.5, 0.1]","[0.8, 0.4, 0.2]","[u'red', u'black', u'blue']","[u'left', u'middle', u'right']","[0.8, 0.4, 0.2]","[u'high', u'low', u'medium']","blue",51,"right","medium","False","False",333,6000,NA
"A2H8I5RMCV8F9H","Fri Oct 02 2020 10:27:34 GMT-0400 (Eastern Daylight Time)","Fri Oct 02 2020 10:35:55 GMT-0400 (Eastern Daylight Time)","Mozilla/5.0 (Windows NT 6.3; Win64; x64) AppleWebKit/537.36 (KHTML, like Gecko) Chrome/85.0.4183.121 Safari/537.36",121,"[0.9, 0.5, 0.1]","[0.8, 0.4, 0.2]","[u'red', u'black', u'blue']","[u'left', u'middle', u'right']","[0.8, 0.4, 0.2]","[u'medium', u'high', u'low']","black",50,"middle","high","True","False",703,6100,NA
"A2H8I5RMCV8F9H","Fri Oct 02 2020 10:27:34 GMT-0400 (Eastern Daylight Time)","Fri Oct 02 2020 10:35:55 GMT-0400 (Eastern Daylight Time)","Mozilla/5.0 (Windows NT 6.3; Win64; x64) AppleWebKit/537.36 (KHTML, like Gecko) Chrome/85.0.4183.121 Safari/537.36",122,"[0.9, 0.5, 0.1]","[0.8, 0.4, 0.2]","[u'red', u'black', u'blue']","[u'left', u'middle', u'right']","[0.8, 0.4, 0.2]","[u'medium', u'high', u'low']","black",50,"middle","high","True","False",875,6200,NA
"A2H8I5RMCV8F9H","Fri Oct 02 2020 10:27:34 GMT-0400 (Eastern Daylight Time)","Fri Oct 02 2020 10:35:55 GMT-0400 (Eastern Daylight Time)","Mozilla/5.0 (Windows NT 6.3; Win64; x64) AppleWebKit/537.36 (KHTML, like Gecko) Chrome/85.0.4183.121 Safari/537.36",123,"[0.9, 0.5, 0.1]","[0.8, 0.4, 0.2]","[u'red', u'black', u'blue']","[u'left', u'middle', u'right']","[0.8, 0.4, 0.2]","[u'medium', u'high', u'low']","red",49,"left","medium","False","False",2121,6150,NA
"A2H8I5RMCV8F9H","Fri Oct 02 2020 10:27:34 GMT-0400 (Eastern Daylight Time)","Fri Oct 02 2020 10:35:55 GMT-0400 (Eastern Daylight Time)","Mozilla/5.0 (Windows NT 6.3; Win64; x64) AppleWebKit/537.36 (KHTML, like Gecko) Chrome/85.0.4183.121 Safari/537.36",124,"[0.9, 0.5, 0.1]","[0.8, 0.4, 0.2]","[u'red', u'black', u'blue']","[u'left', u'middle', u'right']","[0.8, 0.4, 0.2]","[u'medium', u'high', u'low']","black",50,"middle","high","True","False",2643,6250,NA
"A2H8I5RMCV8F9H","Fri Oct 02 2020 10:27:34 GMT-0400 (Eastern Daylight Time)","Fri Oct 02 2020 10:35:55 GMT-0400 (Eastern Daylight Time)","Mozilla/5.0 (Windows NT 6.3; Win64; x64) AppleWebKit/537.36 (KHTML, like Gecko) Chrome/85.0.4183.121 Safari/537.36",125,"[0.9, 0.5, 0.1]","[0.8, 0.4, 0.2]","[u'red', u'black', u'blue']","[u'left', u'middle', u'right']","[0.8, 0.4, 0.2]","[u'medium', u'high', u'low']","blue",51,"right","low","False","False",1263,6200,NA
"A2H8I5RMCV8F9H","Fri Oct 02 2020 10:27:34 GMT-0400 (Eastern Daylight Time)","Fri Oct 02 2020 10:35:55 GMT-0400 (Eastern Daylight Time)","Mozilla/5.0 (Windows NT 6.3; Win64; x64) AppleWebKit/537.36 (KHTML, like Gecko) Chrome/85.0.4183.121 Safari/537.36",126,"[0.9, 0.5, 0.1]","[0.8, 0.4, 0.2]","[u'red', u'black', u'blue']","[u'left', u'middle', u'right']","[0.8, 0.4, 0.2]","[u'medium', u'high', u'low']","black",50,"middle","high","True","False",800,6300,NA
"A2H8I5RMCV8F9H","Fri Oct 02 2020 10:27:34 GMT-0400 (Eastern Daylight Time)","Fri Oct 02 2020 10:35:55 GMT-0400 (Eastern Daylight Time)","Mozilla/5.0 (Windows NT 6.3; Win64; x64) AppleWebKit/537.36 (KHTML, like Gecko) Chrome/85.0.4183.121 Safari/537.36",127,"[0.9, 0.5, 0.1]","[0.8, 0.4, 0.2]","[u'red', u'black', u'blue']","[u'left', u'middle', u'right']","[0.8, 0.4, 0.2]","[u'medium', u'high', u'low']","black",50,"middle","high","True","False",861,6400,NA
"A2H8I5RMCV8F9H","Fri Oct 02 2020 10:27:34 GMT-0400 (Eastern Daylight Time)","Fri Oct 02 2020 10:35:55 GMT-0400 (Eastern Daylight Time)","Mozilla/5.0 (Windows NT 6.3; Win64; x64) AppleWebKit/537.36 (KHTML, like Gecko) Chrome/85.0.4183.121 Safari/537.36",128,"[0.9, 0.5, 0.1]","[0.8, 0.4, 0.2]","[u'red', u'black', u'blue']","[u'left', u'middle', u'right']","[0.8, 0.4, 0.2]","[u'medium', u'high', u'low']","black",50,"middle","high","False","False",752,6350,NA
"A2H8I5RMCV8F9H","Fri Oct 02 2020 10:27:34 GMT-0400 (Eastern Daylight Time)","Fri Oct 02 2020 10:35:55 GMT-0400 (Eastern Daylight Time)","Mozilla/5.0 (Windows NT 6.3; Win64; x64) AppleWebKit/537.36 (KHTML, like Gecko) Chrome/85.0.4183.121 Safari/537.36",129,"[0.9, 0.5, 0.1]","[0.8, 0.4, 0.2]","[u'red', u'black', u'blue']","[u'left', u'middle', u'right']","[0.8, 0.4, 0.2]","[u'medium', u'high', u'low']","red",49,"left","medium","False","False",719,6300,NA
"A2H8I5RMCV8F9H","Fri Oct 02 2020 10:27:34 GMT-0400 (Eastern Daylight Time)","Fri Oct 02 2020 10:35:55 GMT-0400 (Eastern Daylight Time)","Mozilla/5.0 (Windows NT 6.3; Win64; x64) AppleWebKit/537.36 (KHTML, like Gecko) Chrome/85.0.4183.121 Safari/537.36",130,"[0.9, 0.5, 0.1]","[0.8, 0.4, 0.2]","[u'red', u'black', u'blue']","[u'left', u'middle', u'right']","[0.8, 0.4, 0.2]","[u'medium', u'high', u'low']","blue",51,"right","low","False","False",1098,6250,NA
"A2H8I5RMCV8F9H","Fri Oct 02 2020 10:27:34 GMT-0400 (Eastern Daylight Time)","Fri Oct 02 2020 10:35:55 GMT-0400 (Eastern Daylight Time)","Mozilla/5.0 (Windows NT 6.3; Win64; x64) AppleWebKit/537.36 (KHTML, like Gecko) Chrome/85.0.4183.121 Safari/537.36",131,"[0.9, 0.5, 0.1]","[0.8, 0.4, 0.2]","[u'red', u'black', u'blue']","[u'left', u'middle', u'right']","[0.8, 0.4, 0.2]","[u'medium', u'high', u'low']","black",50,"middle","high","True","False",299,6350,NA
"A2H8I5RMCV8F9H","Fri Oct 02 2020 10:27:34 GMT-0400 (Eastern Daylight Time)","Fri Oct 02 2020 10:35:55 GMT-0400 (Eastern Daylight Time)","Mozilla/5.0 (Windows NT 6.3; Win64; x64) AppleWebKit/537.36 (KHTML, like Gecko) Chrome/85.0.4183.121 Safari/537.36",132,"[0.9, 0.5, 0.1]","[0.8, 0.4, 0.2]","[u'red', u'black', u'blue']","[u'left', u'middle', u'right']","[0.8, 0.4, 0.2]","[u'medium', u'high', u'low']","black",50,"middle","high","True","False",631,6450,NA
"A2H8I5RMCV8F9H","Fri Oct 02 2020 10:27:34 GMT-0400 (Eastern Daylight Time)","Fri Oct 02 2020 10:35:55 GMT-0400 (Eastern Daylight Time)","Mozilla/5.0 (Windows NT 6.3; Win64; x64) AppleWebKit/537.36 (KHTML, like Gecko) Chrome/85.0.4183.121 Safari/537.36",133,"[0.9, 0.5, 0.1]","[0.8, 0.4, 0.2]","[u'red', u'black', u'blue']","[u'left', u'middle', u'right']","[0.8, 0.4, 0.2]","[u'medium', u'high', u'low']","black",50,"middle","high","True","False",665,6550,NA
"A2H8I5RMCV8F9H","Fri Oct 02 2020 10:27:34 GMT-0400 (Eastern Daylight Time)","Fri Oct 02 2020 10:35:55 GMT-0400 (Eastern Daylight Time)","Mozilla/5.0 (Windows NT 6.3; Win64; x64) AppleWebKit/537.36 (KHTML, like Gecko) Chrome/85.0.4183.121 Safari/537.36",134,"[0.9, 0.5, 0.1]","[0.8, 0.4, 0.2]","[u'red', u'black', u'blue']","[u'left', u'middle', u'right']","[0.8, 0.4, 0.2]","[u'medium', u'high', u'low']","black",50,"middle","high","True","False",641,6650,NA
"A2H8I5RMCV8F9H","Fri Oct 02 2020 10:27:34 GMT-0400 (Eastern Daylight Time)","Fri Oct 02 2020 10:35:55 GMT-0400 (Eastern Daylight Time)","Mozilla/5.0 (Windows NT 6.3; Win64; x64) AppleWebKit/537.36 (KHTML, like Gecko) Chrome/85.0.4183.121 Safari/537.36",135,"[0.9, 0.5, 0.1]","[0.8, 0.4, 0.2]","[u'red', u'black', u'blue']","[u'left', u'middle', u'right']","[0.8, 0.4, 0.2]","[u'medium', u'high', u'low']","black",50,"middle","high","False","False",864,6600,NA
"A2H8I5RMCV8F9H","Fri Oct 02 2020 10:27:34 GMT-0400 (Eastern Daylight Time)","Fri Oct 02 2020 10:35:55 GMT-0400 (Eastern Daylight Time)","Mozilla/5.0 (Windows NT 6.3; Win64; x64) AppleWebKit/537.36 (KHTML, like Gecko) Chrome/85.0.4183.121 Safari/537.36",136,"[0.9, 0.5, 0.1]","[0.8, 0.4, 0.2]","[u'red', u'black', u'blue']","[u'left', u'middle', u'right']","[0.8, 0.4, 0.2]","[u'medium', u'high', u'low']","blue",51,"right","low","False","False",312,6550,NA
"A2H8I5RMCV8F9H","Fri Oct 02 2020 10:27:34 GMT-0400 (Eastern Daylight Time)","Fri Oct 02 2020 10:35:55 GMT-0400 (Eastern Daylight Time)","Mozilla/5.0 (Windows NT 6.3; Win64; x64) AppleWebKit/537.36 (KHTML, like Gecko) Chrome/85.0.4183.121 Safari/537.36",137,"[0.9, 0.5, 0.1]","[0.8, 0.4, 0.2]","[u'red', u'black', u'blue']","[u'left', u'middle', u'right']","[0.8, 0.4, 0.2]","[u'medium', u'high', u'low']","red",49,"left","medium","False","False",1115,6500,NA
"A2H8I5RMCV8F9H","Fri Oct 02 2020 10:27:34 GMT-0400 (Eastern Daylight Time)","Fri Oct 02 2020 10:35:55 GMT-0400 (Eastern Daylight Time)","Mozilla/5.0 (Windows NT 6.3; Win64; x64) AppleWebKit/537.36 (KHTML, like Gecko) Chrome/85.0.4183.121 Safari/537.36",138,"[0.9, 0.5, 0.1]","[0.8, 0.4, 0.2]","[u'red', u'black', u'blue']","[u'left', u'middle', u'right']","[0.8, 0.4, 0.2]","[u'medium', u'high', u'low']","black",50,"middle","high","True","False",891,6600,NA
"A2H8I5RMCV8F9H","Fri Oct 02 2020 10:27:34 GMT-0400 (Eastern Daylight Time)","Fri Oct 02 2020 10:35:55 GMT-0400 (Eastern Daylight Time)","Mozilla/5.0 (Windows NT 6.3; Win64; x64) AppleWebKit/537.36 (KHTML, like Gecko) Chrome/85.0.4183.121 Safari/537.36",139,"[0.9, 0.5, 0.1]","[0.8, 0.4, 0.2]","[u'red', u'black', u'blue']","[u'left', u'middle', u'right']","[0.8, 0.4, 0.2]","[u'medium', u'high', u'low']","black",50,"middle","high","False","False",671,6550,NA
"A2H8I5RMCV8F9H","Fri Oct 02 2020 10:27:34 GMT-0400 (Eastern Daylight Time)","Fri Oct 02 2020 10:35:55 GMT-0400 (Eastern Daylight Time)","Mozilla/5.0 (Windows NT 6.3; Win64; x64) AppleWebKit/537.36 (KHTML, like Gecko) Chrome/85.0.4183.121 Safari/537.36",140,"[0.9, 0.5, 0.1]","[0.8, 0.4, 0.2]","[u'red', u'black', u'blue']","[u'left', u'middle', u'right']","[0.8, 0.4, 0.2]","[u'medium', u'high', u'low']","blue",51,"right","low","False","False",291,6500,NA
"A2H8I5RMCV8F9H","Fri Oct 02 2020 10:27:34 GMT-0400 (Eastern Daylight Time)","Fri Oct 02 2020 10:35:55 GMT-0400 (Eastern Daylight Time)","Mozilla/5.0 (Windows NT 6.3; Win64; x64) AppleWebKit/537.36 (KHTML, like Gecko) Chrome/85.0.4183.121 Safari/537.36",141,"[0.9, 0.5, 0.1]","[0.8, 0.4, 0.2]","[u'red', u'black', u'blue']","[u'left', u'middle', u'right']","[0.8, 0.4, 0.2]","[u'medium', u'high', u'low']","red",49,"left","medium","False","False",490,6450,NA
"A2H8I5RMCV8F9H","Fri Oct 02 2020 10:27:34 GMT-0400 (Eastern Daylight Time)","Fri Oct 02 2020 10:35:55 GMT-0400 (Eastern Daylight Time)","Mozilla/5.0 (Windows NT 6.3; Win64; x64) AppleWebKit/537.36 (KHTML, like Gecko) Chrome/85.0.4183.121 Safari/537.36",142,"[0.9, 0.5, 0.1]","[0.8, 0.4, 0.2]","[u'red', u'black', u'blue']","[u'left', u'middle', u'right']","[0.8, 0.4, 0.2]","[u'medium', u'high', u'low']","black",50,"middle","high","False","False",236,6400,NA
"A2H8I5RMCV8F9H","Fri Oct 02 2020 10:27:34 GMT-0400 (Eastern Daylight Time)","Fri Oct 02 2020 10:35:55 GMT-0400 (Eastern Daylight Time)","Mozilla/5.0 (Windows NT 6.3; Win64; x64) AppleWebKit/537.36 (KHTML, like Gecko) Chrome/85.0.4183.121 Safari/537.36",143,"[0.9, 0.5, 0.1]","[0.8, 0.4, 0.2]","[u'red', u'black', u'blue']","[u'left', u'middle', u'right']","[0.8, 0.4, 0.2]","[u'medium', u'high', u'low']","blue",51,"right","low","False","False",750,6350,NA
"A2H8I5RMCV8F9H","Fri Oct 02 2020 10:27:34 GMT-0400 (Eastern Daylight Time)","Fri Oct 02 2020 10:35:55 GMT-0400 (Eastern Daylight Time)","Mozilla/5.0 (Windows NT 6.3; Win64; x64) AppleWebKit/537.36 (KHTML, like Gecko) Chrome/85.0.4183.121 Safari/537.36",144,"[0.9, 0.5, 0.1]","[0.8, 0.4, 0.2]","[u'red', u'black', u'blue']","[u'left', u'middle', u'right']","[0.8, 0.4, 0.2]","[u'medium', u'high', u'low']","black",50,"middle","high","False","False",232,6300,NA
"A2H8I5RMCV8F9H","Fri Oct 02 2020 10:27:34 GMT-0400 (Eastern Daylight Time)","Fri Oct 02 2020 10:35:55 GMT-0400 (Eastern Daylight Time)","Mozilla/5.0 (Windows NT 6.3; Win64; x64) AppleWebKit/537.36 (KHTML, like Gecko) Chrome/85.0.4183.121 Safari/537.36",145,"[0.9, 0.5, 0.1]","[0.8, 0.4, 0.2]","[u'red', u'black', u'blue']","[u'left', u'middle', u'right']","[0.8, 0.4, 0.2]","[u'medium', u'high', u'low']","blue",51,"right","low","False","False",280,6250,NA
"A2H8I5RMCV8F9H","Fri Oct 02 2020 10:27:34 GMT-0400 (Eastern Daylight Time)","Fri Oct 02 2020 10:35:55 GMT-0400 (Eastern Daylight Time)","Mozilla/5.0 (Windows NT 6.3; Win64; x64) AppleWebKit/537.36 (KHTML, like Gecko) Chrome/85.0.4183.121 Safari/537.36",146,"[0.9, 0.5, 0.1]","[0.8, 0.4, 0.2]","[u'red', u'black', u'blue']","[u'left', u'middle', u'right']","[0.8, 0.4, 0.2]","[u'medium', u'high', u'low']","red",49,"left","medium","False","False",657,6200,NA
"A2H8I5RMCV8F9H","Fri Oct 02 2020 10:27:34 GMT-0400 (Eastern Daylight Time)","Fri Oct 02 2020 10:35:55 GMT-0400 (Eastern Daylight Time)","Mozilla/5.0 (Windows NT 6.3; Win64; x64) AppleWebKit/537.36 (KHTML, like Gecko) Chrome/85.0.4183.121 Safari/537.36",147,"[0.9, 0.5, 0.1]","[0.8, 0.4, 0.2]","[u'red', u'black', u'blue']","[u'left', u'middle', u'right']","[0.8, 0.4, 0.2]","[u'medium', u'high', u'low']","blue",51,"right","low","True","False",286,6300,NA
"A2H8I5RMCV8F9H","Fri Oct 02 2020 10:27:34 GMT-0400 (Eastern Daylight Time)","Fri Oct 02 2020 10:35:55 GMT-0400 (Eastern Daylight Time)","Mozilla/5.0 (Windows NT 6.3; Win64; x64) AppleWebKit/537.36 (KHTML, like Gecko) Chrome/85.0.4183.121 Safari/537.36",148,"[0.9, 0.5, 0.1]","[0.8, 0.4, 0.2]","[u'red', u'black', u'blue']","[u'left', u'middle', u'right']","[0.8, 0.4, 0.2]","[u'medium', u'high', u'low']","blue",51,"right","low","False","False",337,6250,NA
"A2H8I5RMCV8F9H","Fri Oct 02 2020 10:27:34 GMT-0400 (Eastern Daylight Time)","Fri Oct 02 2020 10:35:55 GMT-0400 (Eastern Daylight Time)","Mozilla/5.0 (Windows NT 6.3; Win64; x64) AppleWebKit/537.36 (KHTML, like Gecko) Chrome/85.0.4183.121 Safari/537.36",149,"[0.9, 0.5, 0.1]","[0.8, 0.4, 0.2]","[u'red', u'black', u'blue']","[u'left', u'middle', u'right']","[0.8, 0.4, 0.2]","[u'medium', u'high', u'low']","black",50,"middle","high","False","False",605,6200,NA
"A2H8I5RMCV8F9H","Fri Oct 02 2020 10:27:34 GMT-0400 (Eastern Daylight Time)","Fri Oct 02 2020 10:35:55 GMT-0400 (Eastern Daylight Time)","Mozilla/5.0 (Windows NT 6.3; Win64; x64) AppleWebKit/537.36 (KHTML, like Gecko) Chrome/85.0.4183.121 Safari/537.36",150,"[0.9, 0.5, 0.1]","[0.8, 0.4, 0.2]","[u'red', u'black', u'blue']","[u'left', u'middle', u'right']","[0.8, 0.4, 0.2]","[u'medium', u'high', u'low']","blue",51,"right","low","True","False",300,6300,NA
"A2H8I5RMCV8F9H","Fri Oct 02 2020 10:27:34 GMT-0400 (Eastern Daylight Time)","Fri Oct 02 2020 10:35:55 GMT-0400 (Eastern Daylight Time)","Mozilla/5.0 (Windows NT 6.3; Win64; x64) AppleWebKit/537.36 (KHTML, like Gecko) Chrome/85.0.4183.121 Safari/537.36",151,"[0.9, 0.5, 0.1]","[0.8, 0.4, 0.2]","[u'red', u'black', u'blue']","[u'left', u'middle', u'right']","[0.8, 0.4, 0.2]","[u'medium', u'high', u'low']","red",49,"left","medium","True","False",715,6400,NA
"A2H8I5RMCV8F9H","Fri Oct 02 2020 10:27:34 GMT-0400 (Eastern Daylight Time)","Fri Oct 02 2020 10:35:55 GMT-0400 (Eastern Daylight Time)","Mozilla/5.0 (Windows NT 6.3; Win64; x64) AppleWebKit/537.36 (KHTML, like Gecko) Chrome/85.0.4183.121 Safari/537.36",152,"[0.9, 0.5, 0.1]","[0.8, 0.4, 0.2]","[u'red', u'black', u'blue']","[u'left', u'middle', u'right']","[0.8, 0.4, 0.2]","[u'medium', u'high', u'low']","blue",51,"right","low","False","False",688,6350,NA
"A2H8I5RMCV8F9H","Fri Oct 02 2020 10:27:34 GMT-0400 (Eastern Daylight Time)","Fri Oct 02 2020 10:35:55 GMT-0400 (Eastern Daylight Time)","Mozilla/5.0 (Windows NT 6.3; Win64; x64) AppleWebKit/537.36 (KHTML, like Gecko) Chrome/85.0.4183.121 Safari/537.36",153,"[0.9, 0.5, 0.1]","[0.8, 0.4, 0.2]","[u'red', u'black', u'blue']","[u'left', u'middle', u'right']","[0.8, 0.4, 0.2]","[u'medium', u'high', u'low']","black",50,"middle","high","True","False",547,6450,NA
"A2H8I5RMCV8F9H","Fri Oct 02 2020 10:27:34 GMT-0400 (Eastern Daylight Time)","Fri Oct 02 2020 10:35:55 GMT-0400 (Eastern Daylight Time)","Mozilla/5.0 (Windows NT 6.3; Win64; x64) AppleWebKit/537.36 (KHTML, like Gecko) Chrome/85.0.4183.121 Safari/537.36",154,"[0.9, 0.5, 0.1]","[0.8, 0.4, 0.2]","[u'red', u'black', u'blue']","[u'left', u'middle', u'right']","[0.8, 0.4, 0.2]","[u'medium', u'high', u'low']","blue",51,"right","low","False","False",2109,6400,NA
"A2H8I5RMCV8F9H","Fri Oct 02 2020 10:27:34 GMT-0400 (Eastern Daylight Time)","Fri Oct 02 2020 10:35:55 GMT-0400 (Eastern Daylight Time)","Mozilla/5.0 (Windows NT 6.3; Win64; x64) AppleWebKit/537.36 (KHTML, like Gecko) Chrome/85.0.4183.121 Safari/537.36",155,"[0.9, 0.5, 0.1]","[0.8, 0.4, 0.2]","[u'red', u'black', u'blue']","[u'left', u'middle', u'right']","[0.8, 0.4, 0.2]","[u'medium', u'high', u'low']","red",49,"left","medium","False","False",531,6350,NA
"A2H8I5RMCV8F9H","Fri Oct 02 2020 10:27:34 GMT-0400 (Eastern Daylight Time)","Fri Oct 02 2020 10:35:55 GMT-0400 (Eastern Daylight Time)","Mozilla/5.0 (Windows NT 6.3; Win64; x64) AppleWebKit/537.36 (KHTML, like Gecko) Chrome/85.0.4183.121 Safari/537.36",156,"[0.9, 0.5, 0.1]","[0.8, 0.4, 0.2]","[u'red', u'black', u'blue']","[u'left', u'middle', u'right']","[0.8, 0.4, 0.2]","[u'medium', u'high', u'low']","black",50,"middle","high","True","False",656,6450,NA
"A2H8I5RMCV8F9H","Fri Oct 02 2020 10:27:34 GMT-0400 (Eastern Daylight Time)","Fri Oct 02 2020 10:35:55 GMT-0400 (Eastern Daylight Time)","Mozilla/5.0 (Windows NT 6.3; Win64; x64) AppleWebKit/537.36 (KHTML, like Gecko) Chrome/85.0.4183.121 Safari/537.36",157,"[0.9, 0.5, 0.1]","[0.8, 0.4, 0.2]","[u'red', u'black', u'blue']","[u'left', u'middle', u'right']","[0.8, 0.4, 0.2]","[u'medium', u'high', u'low']","blue",51,"right","low","False","False",969,6400,NA
"A2H8I5RMCV8F9H","Fri Oct 02 2020 10:27:34 GMT-0400 (Eastern Daylight Time)","Fri Oct 02 2020 10:35:55 GMT-0400 (Eastern Daylight Time)","Mozilla/5.0 (Windows NT 6.3; Win64; x64) AppleWebKit/537.36 (KHTML, like Gecko) Chrome/85.0.4183.121 Safari/537.36",158,"[0.9, 0.5, 0.1]","[0.8, 0.4, 0.2]","[u'red', u'black', u'blue']","[u'left', u'middle', u'right']","[0.8, 0.4, 0.2]","[u'medium', u'high', u'low']","black",50,"middle","high","True","False",70,6500,NA
"A2H8I5RMCV8F9H","Fri Oct 02 2020 10:27:34 GMT-0400 (Eastern Daylight Time)","Fri Oct 02 2020 10:35:55 GMT-0400 (Eastern Daylight Time)","Mozilla/5.0 (Windows NT 6.3; Win64; x64) AppleWebKit/537.36 (KHTML, like Gecko) Chrome/85.0.4183.121 Safari/537.36",159,"[0.9, 0.5, 0.1]","[0.8, 0.4, 0.2]","[u'red', u'black', u'blue']","[u'left', u'middle', u'right']","[0.8, 0.4, 0.2]","[u'medium', u'high', u'low']","black",50,"middle","high","True","False",772,6600,NA
"A2H8I5RMCV8F9H","Fri Oct 02 2020 10:27:34 GMT-0400 (Eastern Daylight Time)","Fri Oct 02 2020 10:35:55 GMT-0400 (Eastern Daylight Time)","Mozilla/5.0 (Windows NT 6.3; Win64; x64) AppleWebKit/537.36 (KHTML, like Gecko) Chrome/85.0.4183.121 Safari/537.36",160,"[0.9, 0.5, 0.1]","[0.8, 0.4, 0.2]","[u'red', u'black', u'blue']","[u'left', u'middle', u'right']","[0.8, 0.4, 0.2]","[u'medium', u'high', u'low']","black",50,"middle","high","True","False",672,6700,NA
