"src_subject_id","start_time","end_time","browser","index","first_half_probabilities","second_half_probabilities","deck_color","deck_position","deck_probabilities","deck_contingencies","response_color","key_press","response_position","response_probability","reward_type","trial_type","rt","reward_tally","exclusion_reason"
"A3ET6NWQH4NNDG","Sat Oct 03 2020 11:32:59 GMT-0600 (Mountain Daylight Time)","Sat Oct 03 2020 11:50:15 GMT-0600 (Mountain Daylight Time)","Mozilla/5.0 (Windows NT 6.3; Win64; x64) AppleWebKit/537.36 (KHTML, like Gecko) Chrome/85.0.4183.121 Safari/537.36",1,"[0.9, 0.5, 0.1]","[0.8, 0.4, 0.2]","[u'blue', u'black', u'red']","[u'left', u'middle', u'right']","[0.9, 0.5, 0.1]","[u'high', u'low', u'medium']","black",50,"middle","low","False","False",3145,-50,NA
"A3ET6NWQH4NNDG","Sat Oct 03 2020 11:32:59 GMT-0600 (Mountain Daylight Time)","Sat Oct 03 2020 11:50:15 GMT-0600 (Mountain Daylight Time)","Mozilla/5.0 (Windows NT 6.3; Win64; x64) AppleWebKit/537.36 (KHTML, like Gecko) Chrome/85.0.4183.121 Safari/537.36",2,"[0.9, 0.5, 0.1]","[0.8, 0.4, 0.2]","[u'blue', u'black', u'red']","[u'left', u'middle', u'right']","[0.9, 0.5, 0.1]","[u'high', u'low', u'medium']","red",51,"right","medium","True","False",1088,50,NA
"A3ET6NWQH4NNDG","Sat Oct 03 2020 11:32:59 GMT-0600 (Mountain Daylight Time)","Sat Oct 03 2020 11:50:15 GMT-0600 (Mountain Daylight Time)","Mozilla/5.0 (Windows NT 6.3; Win64; x64) AppleWebKit/537.36 (KHTML, like Gecko) Chrome/85.0.4183.121 Safari/537.36",3,"[0.9, 0.5, 0.1]","[0.8, 0.4, 0.2]","[u'blue', u'black', u'red']","[u'left', u'middle', u'right']","[0.9, 0.5, 0.1]","[u'high', u'low', u'medium']","red",51,"right","medium","False","False",866,0,NA
"A3ET6NWQH4NNDG","Sat Oct 03 2020 11:32:59 GMT-0600 (Mountain Daylight Time)","Sat Oct 03 2020 11:50:15 GMT-0600 (Mountain Daylight Time)","Mozilla/5.0 (Windows NT 6.3; Win64; x64) AppleWebKit/537.36 (KHTML, like Gecko) Chrome/85.0.4183.121 Safari/537.36",4,"[0.9, 0.5, 0.1]","[0.8, 0.4, 0.2]","[u'blue', u'black', u'red']","[u'left', u'middle', u'right']","[0.9, 0.5, 0.1]","[u'high', u'low', u'medium']","blue",49,"left","high","True","False",655,100,NA
"A3ET6NWQH4NNDG","Sat Oct 03 2020 11:32:59 GMT-0600 (Mountain Daylight Time)","Sat Oct 03 2020 11:50:15 GMT-0600 (Mountain Daylight Time)","Mozilla/5.0 (Windows NT 6.3; Win64; x64) AppleWebKit/537.36 (KHTML, like Gecko) Chrome/85.0.4183.121 Safari/537.36",5,"[0.9, 0.5, 0.1]","[0.8, 0.4, 0.2]","[u'blue', u'black', u'red']","[u'left', u'middle', u'right']","[0.9, 0.5, 0.1]","[u'high', u'low', u'medium']","black",50,"middle","low","True","False",1218,200,NA
"A3ET6NWQH4NNDG","Sat Oct 03 2020 11:32:59 GMT-0600 (Mountain Daylight Time)","Sat Oct 03 2020 11:50:15 GMT-0600 (Mountain Daylight Time)","Mozilla/5.0 (Windows NT 6.3; Win64; x64) AppleWebKit/537.36 (KHTML, like Gecko) Chrome/85.0.4183.121 Safari/537.36",6,"[0.9, 0.5, 0.1]","[0.8, 0.4, 0.2]","[u'blue', u'black', u'red']","[u'left', u'middle', u'right']","[0.9, 0.5, 0.1]","[u'high', u'low', u'medium']","red",51,"right","medium","False","False",730,150,NA
"A3ET6NWQH4NNDG","Sat Oct 03 2020 11:32:59 GMT-0600 (Mountain Daylight Time)","Sat Oct 03 2020 11:50:15 GMT-0600 (Mountain Daylight Time)","Mozilla/5.0 (Windows NT 6.3; Win64; x64) AppleWebKit/537.36 (KHTML, like Gecko) Chrome/85.0.4183.121 Safari/537.36",7,"[0.9, 0.5, 0.1]","[0.8, 0.4, 0.2]","[u'blue', u'black', u'red']","[u'left', u'middle', u'right']","[0.9, 0.5, 0.1]","[u'high', u'low', u'medium']","blue",49,"left","high","True","False",797,250,NA
"A3ET6NWQH4NNDG","Sat Oct 03 2020 11:32:59 GMT-0600 (Mountain Daylight Time)","Sat Oct 03 2020 11:50:15 GMT-0600 (Mountain Daylight Time)","Mozilla/5.0 (Windows NT 6.3; Win64; x64) AppleWebKit/537.36 (KHTML, like Gecko) Chrome/85.0.4183.121 Safari/537.36",8,"[0.9, 0.5, 0.1]","[0.8, 0.4, 0.2]","[u'blue', u'black', u'red']","[u'left', u'middle', u'right']","[0.9, 0.5, 0.1]","[u'high', u'low', u'medium']","blue",49,"left","high","True","False",1447,350,NA
"A3ET6NWQH4NNDG","Sat Oct 03 2020 11:32:59 GMT-0600 (Mountain Daylight Time)","Sat Oct 03 2020 11:50:15 GMT-0600 (Mountain Daylight Time)","Mozilla/5.0 (Windows NT 6.3; Win64; x64) AppleWebKit/537.36 (KHTML, like Gecko) Chrome/85.0.4183.121 Safari/537.36",9,"[0.9, 0.5, 0.1]","[0.8, 0.4, 0.2]","[u'blue', u'black', u'red']","[u'left', u'middle', u'right']","[0.9, 0.5, 0.1]","[u'high', u'low', u'medium']","black",50,"middle","low","False","False",869,300,NA
"A3ET6NWQH4NNDG","Sat Oct 03 2020 11:32:59 GMT-0600 (Mountain Daylight Time)","Sat Oct 03 2020 11:50:15 GMT-0600 (Mountain Daylight Time)","Mozilla/5.0 (Windows NT 6.3; Win64; x64) AppleWebKit/537.36 (KHTML, like Gecko) Chrome/85.0.4183.121 Safari/537.36",10,"[0.9, 0.5, 0.1]","[0.8, 0.4, 0.2]","[u'blue', u'black', u'red']","[u'left', u'middle', u'right']","[0.9, 0.5, 0.1]","[u'high', u'low', u'medium']","blue",49,"left","high","True","False",667,400,NA
"A3ET6NWQH4NNDG","Sat Oct 03 2020 11:32:59 GMT-0600 (Mountain Daylight Time)","Sat Oct 03 2020 11:50:15 GMT-0600 (Mountain Daylight Time)","Mozilla/5.0 (Windows NT 6.3; Win64; x64) AppleWebKit/537.36 (KHTML, like Gecko) Chrome/85.0.4183.121 Safari/537.36",11,"[0.9, 0.5, 0.1]","[0.8, 0.4, 0.2]","[u'blue', u'black', u'red']","[u'left', u'middle', u'right']","[0.9, 0.5, 0.1]","[u'high', u'low', u'medium']","blue",49,"left","high","True","False",723,500,NA
"A3ET6NWQH4NNDG","Sat Oct 03 2020 11:32:59 GMT-0600 (Mountain Daylight Time)","Sat Oct 03 2020 11:50:15 GMT-0600 (Mountain Daylight Time)","Mozilla/5.0 (Windows NT 6.3; Win64; x64) AppleWebKit/537.36 (KHTML, like Gecko) Chrome/85.0.4183.121 Safari/537.36",12,"[0.9, 0.5, 0.1]","[0.8, 0.4, 0.2]","[u'blue', u'black', u'red']","[u'left', u'middle', u'right']","[0.9, 0.5, 0.1]","[u'high', u'low', u'medium']","blue",49,"left","high","True","False",682,600,NA
"A3ET6NWQH4NNDG","Sat Oct 03 2020 11:32:59 GMT-0600 (Mountain Daylight Time)","Sat Oct 03 2020 11:50:15 GMT-0600 (Mountain Daylight Time)","Mozilla/5.0 (Windows NT 6.3; Win64; x64) AppleWebKit/537.36 (KHTML, like Gecko) Chrome/85.0.4183.121 Safari/537.36",13,"[0.9, 0.5, 0.1]","[0.8, 0.4, 0.2]","[u'blue', u'black', u'red']","[u'left', u'middle', u'right']","[0.9, 0.5, 0.1]","[u'high', u'low', u'medium']","blue",49,"left","high","True","False",740,700,NA
"A3ET6NWQH4NNDG","Sat Oct 03 2020 11:32:59 GMT-0600 (Mountain Daylight Time)","Sat Oct 03 2020 11:50:15 GMT-0600 (Mountain Daylight Time)","Mozilla/5.0 (Windows NT 6.3; Win64; x64) AppleWebKit/537.36 (KHTML, like Gecko) Chrome/85.0.4183.121 Safari/537.36",14,"[0.9, 0.5, 0.1]","[0.8, 0.4, 0.2]","[u'blue', u'black', u'red']","[u'left', u'middle', u'right']","[0.9, 0.5, 0.1]","[u'high', u'low', u'medium']","blue",49,"left","high","True","False",760,800,NA
"A3ET6NWQH4NNDG","Sat Oct 03 2020 11:32:59 GMT-0600 (Mountain Daylight Time)","Sat Oct 03 2020 11:50:15 GMT-0600 (Mountain Daylight Time)","Mozilla/5.0 (Windows NT 6.3; Win64; x64) AppleWebKit/537.36 (KHTML, like Gecko) Chrome/85.0.4183.121 Safari/537.36",15,"[0.9, 0.5, 0.1]","[0.8, 0.4, 0.2]","[u'blue', u'black', u'red']","[u'left', u'middle', u'right']","[0.9, 0.5, 0.1]","[u'high', u'low', u'medium']","blue",49,"left","high","True","False",748,900,NA
"A3ET6NWQH4NNDG","Sat Oct 03 2020 11:32:59 GMT-0600 (Mountain Daylight Time)","Sat Oct 03 2020 11:50:15 GMT-0600 (Mountain Daylight Time)","Mozilla/5.0 (Windows NT 6.3; Win64; x64) AppleWebKit/537.36 (KHTML, like Gecko) Chrome/85.0.4183.121 Safari/537.36",16,"[0.9, 0.5, 0.1]","[0.8, 0.4, 0.2]","[u'blue', u'black', u'red']","[u'left', u'middle', u'right']","[0.9, 0.5, 0.1]","[u'high', u'low', u'medium']","blue",49,"left","high","True","True",788,1000,NA
"A3ET6NWQH4NNDG","Sat Oct 03 2020 11:32:59 GMT-0600 (Mountain Daylight Time)","Sat Oct 03 2020 11:50:15 GMT-0600 (Mountain Daylight Time)","Mozilla/5.0 (Windows NT 6.3; Win64; x64) AppleWebKit/537.36 (KHTML, like Gecko) Chrome/85.0.4183.121 Safari/537.36",17,"[0.9, 0.5, 0.1]","[0.8, 0.4, 0.2]","[u'blue', u'black', u'red']","[u'left', u'middle', u'right']","[0.9, 0.5, 0.1]","[u'low', u'high', u'medium']","blue",49,"left","low","False","False",741,950,NA
"A3ET6NWQH4NNDG","Sat Oct 03 2020 11:32:59 GMT-0600 (Mountain Daylight Time)","Sat Oct 03 2020 11:50:15 GMT-0600 (Mountain Daylight Time)","Mozilla/5.0 (Windows NT 6.3; Win64; x64) AppleWebKit/537.36 (KHTML, like Gecko) Chrome/85.0.4183.121 Safari/537.36",18,"[0.9, 0.5, 0.1]","[0.8, 0.4, 0.2]","[u'blue', u'black', u'red']","[u'left', u'middle', u'right']","[0.9, 0.5, 0.1]","[u'low', u'high', u'medium']","blue",49,"left","low","False","False",698,900,NA
"A3ET6NWQH4NNDG","Sat Oct 03 2020 11:32:59 GMT-0600 (Mountain Daylight Time)","Sat Oct 03 2020 11:50:15 GMT-0600 (Mountain Daylight Time)","Mozilla/5.0 (Windows NT 6.3; Win64; x64) AppleWebKit/537.36 (KHTML, like Gecko) Chrome/85.0.4183.121 Safari/537.36",19,"[0.9, 0.5, 0.1]","[0.8, 0.4, 0.2]","[u'blue', u'black', u'red']","[u'left', u'middle', u'right']","[0.9, 0.5, 0.1]","[u'low', u'high', u'medium']","red",51,"right","medium","False","False",548,850,NA
"A3ET6NWQH4NNDG","Sat Oct 03 2020 11:32:59 GMT-0600 (Mountain Daylight Time)","Sat Oct 03 2020 11:50:15 GMT-0600 (Mountain Daylight Time)","Mozilla/5.0 (Windows NT 6.3; Win64; x64) AppleWebKit/537.36 (KHTML, like Gecko) Chrome/85.0.4183.121 Safari/537.36",20,"[0.9, 0.5, 0.1]","[0.8, 0.4, 0.2]","[u'blue', u'black', u'red']","[u'left', u'middle', u'right']","[0.9, 0.5, 0.1]","[u'low', u'high', u'medium']","black",50,"middle","high","True","False",444,950,NA
"A3ET6NWQH4NNDG","Sat Oct 03 2020 11:32:59 GMT-0600 (Mountain Daylight Time)","Sat Oct 03 2020 11:50:15 GMT-0600 (Mountain Daylight Time)","Mozilla/5.0 (Windows NT 6.3; Win64; x64) AppleWebKit/537.36 (KHTML, like Gecko) Chrome/85.0.4183.121 Safari/537.36",21,"[0.9, 0.5, 0.1]","[0.8, 0.4, 0.2]","[u'blue', u'black', u'red']","[u'left', u'middle', u'right']","[0.9, 0.5, 0.1]","[u'low', u'high', u'medium']","black",50,"middle","high","True","False",531,1050,NA
"A3ET6NWQH4NNDG","Sat Oct 03 2020 11:32:59 GMT-0600 (Mountain Daylight Time)","Sat Oct 03 2020 11:50:15 GMT-0600 (Mountain Daylight Time)","Mozilla/5.0 (Windows NT 6.3; Win64; x64) AppleWebKit/537.36 (KHTML, like Gecko) Chrome/85.0.4183.121 Safari/537.36",22,"[0.9, 0.5, 0.1]","[0.8, 0.4, 0.2]","[u'blue', u'black', u'red']","[u'left', u'middle', u'right']","[0.9, 0.5, 0.1]","[u'low', u'high', u'medium']","black",50,"middle","high","True","False",516,1150,NA
"A3ET6NWQH4NNDG","Sat Oct 03 2020 11:32:59 GMT-0600 (Mountain Daylight Time)","Sat Oct 03 2020 11:50:15 GMT-0600 (Mountain Daylight Time)","Mozilla/5.0 (Windows NT 6.3; Win64; x64) AppleWebKit/537.36 (KHTML, like Gecko) Chrome/85.0.4183.121 Safari/537.36",23,"[0.9, 0.5, 0.1]","[0.8, 0.4, 0.2]","[u'blue', u'black', u'red']","[u'left', u'middle', u'right']","[0.9, 0.5, 0.1]","[u'low', u'high', u'medium']","black",50,"middle","high","True","False",427,1250,NA
"A3ET6NWQH4NNDG","Sat Oct 03 2020 11:32:59 GMT-0600 (Mountain Daylight Time)","Sat Oct 03 2020 11:50:15 GMT-0600 (Mountain Daylight Time)","Mozilla/5.0 (Windows NT 6.3; Win64; x64) AppleWebKit/537.36 (KHTML, like Gecko) Chrome/85.0.4183.121 Safari/537.36",24,"[0.9, 0.5, 0.1]","[0.8, 0.4, 0.2]","[u'blue', u'black', u'red']","[u'left', u'middle', u'right']","[0.9, 0.5, 0.1]","[u'low', u'high', u'medium']","black",50,"middle","high","True","False",524,1350,NA
"A3ET6NWQH4NNDG","Sat Oct 03 2020 11:32:59 GMT-0600 (Mountain Daylight Time)","Sat Oct 03 2020 11:50:15 GMT-0600 (Mountain Daylight Time)","Mozilla/5.0 (Windows NT 6.3; Win64; x64) AppleWebKit/537.36 (KHTML, like Gecko) Chrome/85.0.4183.121 Safari/537.36",25,"[0.9, 0.5, 0.1]","[0.8, 0.4, 0.2]","[u'blue', u'black', u'red']","[u'left', u'middle', u'right']","[0.9, 0.5, 0.1]","[u'low', u'high', u'medium']","black",50,"middle","high","True","False",670,1450,NA
"A3ET6NWQH4NNDG","Sat Oct 03 2020 11:32:59 GMT-0600 (Mountain Daylight Time)","Sat Oct 03 2020 11:50:15 GMT-0600 (Mountain Daylight Time)","Mozilla/5.0 (Windows NT 6.3; Win64; x64) AppleWebKit/537.36 (KHTML, like Gecko) Chrome/85.0.4183.121 Safari/537.36",26,"[0.9, 0.5, 0.1]","[0.8, 0.4, 0.2]","[u'blue', u'black', u'red']","[u'left', u'middle', u'right']","[0.9, 0.5, 0.1]","[u'low', u'high', u'medium']","black",50,"middle","high","True","False",696,1550,NA
"A3ET6NWQH4NNDG","Sat Oct 03 2020 11:32:59 GMT-0600 (Mountain Daylight Time)","Sat Oct 03 2020 11:50:15 GMT-0600 (Mountain Daylight Time)","Mozilla/5.0 (Windows NT 6.3; Win64; x64) AppleWebKit/537.36 (KHTML, like Gecko) Chrome/85.0.4183.121 Safari/537.36",27,"[0.9, 0.5, 0.1]","[0.8, 0.4, 0.2]","[u'blue', u'black', u'red']","[u'left', u'middle', u'right']","[0.9, 0.5, 0.1]","[u'low', u'high', u'medium']","black",50,"middle","high","False","False",724,1500,NA
"A3ET6NWQH4NNDG","Sat Oct 03 2020 11:32:59 GMT-0600 (Mountain Daylight Time)","Sat Oct 03 2020 11:50:15 GMT-0600 (Mountain Daylight Time)","Mozilla/5.0 (Windows NT 6.3; Win64; x64) AppleWebKit/537.36 (KHTML, like Gecko) Chrome/85.0.4183.121 Safari/537.36",28,"[0.9, 0.5, 0.1]","[0.8, 0.4, 0.2]","[u'blue', u'black', u'red']","[u'left', u'middle', u'right']","[0.9, 0.5, 0.1]","[u'low', u'high', u'medium']","red",51,"right","medium","False","False",318,1450,NA
"A3ET6NWQH4NNDG","Sat Oct 03 2020 11:32:59 GMT-0600 (Mountain Daylight Time)","Sat Oct 03 2020 11:50:15 GMT-0600 (Mountain Daylight Time)","Mozilla/5.0 (Windows NT 6.3; Win64; x64) AppleWebKit/537.36 (KHTML, like Gecko) Chrome/85.0.4183.121 Safari/537.36",29,"[0.9, 0.5, 0.1]","[0.8, 0.4, 0.2]","[u'blue', u'black', u'red']","[u'left', u'middle', u'right']","[0.9, 0.5, 0.1]","[u'low', u'high', u'medium']","blue",49,"left","low","False","False",413,1400,NA
"A3ET6NWQH4NNDG","Sat Oct 03 2020 11:32:59 GMT-0600 (Mountain Daylight Time)","Sat Oct 03 2020 11:50:15 GMT-0600 (Mountain Daylight Time)","Mozilla/5.0 (Windows NT 6.3; Win64; x64) AppleWebKit/537.36 (KHTML, like Gecko) Chrome/85.0.4183.121 Safari/537.36",30,"[0.9, 0.5, 0.1]","[0.8, 0.4, 0.2]","[u'blue', u'black', u'red']","[u'left', u'middle', u'right']","[0.9, 0.5, 0.1]","[u'low', u'high', u'medium']","black",50,"middle","high","True","False",399,1500,NA
"A3ET6NWQH4NNDG","Sat Oct 03 2020 11:32:59 GMT-0600 (Mountain Daylight Time)","Sat Oct 03 2020 11:50:15 GMT-0600 (Mountain Daylight Time)","Mozilla/5.0 (Windows NT 6.3; Win64; x64) AppleWebKit/537.36 (KHTML, like Gecko) Chrome/85.0.4183.121 Safari/537.36",31,"[0.9, 0.5, 0.1]","[0.8, 0.4, 0.2]","[u'blue', u'black', u'red']","[u'left', u'middle', u'right']","[0.9, 0.5, 0.1]","[u'low', u'high', u'medium']","black",50,"middle","high","True","False",270,1600,NA
"A3ET6NWQH4NNDG","Sat Oct 03 2020 11:32:59 GMT-0600 (Mountain Daylight Time)","Sat Oct 03 2020 11:50:15 GMT-0600 (Mountain Daylight Time)","Mozilla/5.0 (Windows NT 6.3; Win64; x64) AppleWebKit/537.36 (KHTML, like Gecko) Chrome/85.0.4183.121 Safari/537.36",32,"[0.9, 0.5, 0.1]","[0.8, 0.4, 0.2]","[u'blue', u'black', u'red']","[u'left', u'middle', u'right']","[0.9, 0.5, 0.1]","[u'low', u'high', u'medium']","black",50,"middle","high","True","False",512,1700,NA
"A3ET6NWQH4NNDG","Sat Oct 03 2020 11:32:59 GMT-0600 (Mountain Daylight Time)","Sat Oct 03 2020 11:50:15 GMT-0600 (Mountain Daylight Time)","Mozilla/5.0 (Windows NT 6.3; Win64; x64) AppleWebKit/537.36 (KHTML, like Gecko) Chrome/85.0.4183.121 Safari/537.36",33,"[0.9, 0.5, 0.1]","[0.8, 0.4, 0.2]","[u'blue', u'black', u'red']","[u'left', u'middle', u'right']","[0.9, 0.5, 0.1]","[u'low', u'high', u'medium']","black",50,"middle","high","True","False",510,1800,NA
"A3ET6NWQH4NNDG","Sat Oct 03 2020 11:32:59 GMT-0600 (Mountain Daylight Time)","Sat Oct 03 2020 11:50:15 GMT-0600 (Mountain Daylight Time)","Mozilla/5.0 (Windows NT 6.3; Win64; x64) AppleWebKit/537.36 (KHTML, like Gecko) Chrome/85.0.4183.121 Safari/537.36",34,"[0.9, 0.5, 0.1]","[0.8, 0.4, 0.2]","[u'blue', u'black', u'red']","[u'left', u'middle', u'right']","[0.9, 0.5, 0.1]","[u'low', u'high', u'medium']","black",50,"middle","high","True","False",637,1900,NA
"A3ET6NWQH4NNDG","Sat Oct 03 2020 11:32:59 GMT-0600 (Mountain Daylight Time)","Sat Oct 03 2020 11:50:15 GMT-0600 (Mountain Daylight Time)","Mozilla/5.0 (Windows NT 6.3; Win64; x64) AppleWebKit/537.36 (KHTML, like Gecko) Chrome/85.0.4183.121 Safari/537.36",35,"[0.9, 0.5, 0.1]","[0.8, 0.4, 0.2]","[u'blue', u'black', u'red']","[u'left', u'middle', u'right']","[0.9, 0.5, 0.1]","[u'low', u'high', u'medium']","black",50,"middle","high","True","False",606,2000,NA
"A3ET6NWQH4NNDG","Sat Oct 03 2020 11:32:59 GMT-0600 (Mountain Daylight Time)","Sat Oct 03 2020 11:50:15 GMT-0600 (Mountain Daylight Time)","Mozilla/5.0 (Windows NT 6.3; Win64; x64) AppleWebKit/537.36 (KHTML, like Gecko) Chrome/85.0.4183.121 Safari/537.36",36,"[0.9, 0.5, 0.1]","[0.8, 0.4, 0.2]","[u'blue', u'black', u'red']","[u'left', u'middle', u'right']","[0.9, 0.5, 0.1]","[u'low', u'high', u'medium']","black",50,"middle","high","False","False",494,1950,NA
"A3ET6NWQH4NNDG","Sat Oct 03 2020 11:32:59 GMT-0600 (Mountain Daylight Time)","Sat Oct 03 2020 11:50:15 GMT-0600 (Mountain Daylight Time)","Mozilla/5.0 (Windows NT 6.3; Win64; x64) AppleWebKit/537.36 (KHTML, like Gecko) Chrome/85.0.4183.121 Safari/537.36",37,"[0.9, 0.5, 0.1]","[0.8, 0.4, 0.2]","[u'blue', u'black', u'red']","[u'left', u'middle', u'right']","[0.9, 0.5, 0.1]","[u'low', u'high', u'medium']","black",50,"middle","high","True","False",425,2050,NA
"A3ET6NWQH4NNDG","Sat Oct 03 2020 11:32:59 GMT-0600 (Mountain Daylight Time)","Sat Oct 03 2020 11:50:15 GMT-0600 (Mountain Daylight Time)","Mozilla/5.0 (Windows NT 6.3; Win64; x64) AppleWebKit/537.36 (KHTML, like Gecko) Chrome/85.0.4183.121 Safari/537.36",38,"[0.9, 0.5, 0.1]","[0.8, 0.4, 0.2]","[u'blue', u'black', u'red']","[u'left', u'middle', u'right']","[0.9, 0.5, 0.1]","[u'low', u'high', u'medium']","black",50,"middle","high","True","True",505,2150,NA
"A3ET6NWQH4NNDG","Sat Oct 03 2020 11:32:59 GMT-0600 (Mountain Daylight Time)","Sat Oct 03 2020 11:50:15 GMT-0600 (Mountain Daylight Time)","Mozilla/5.0 (Windows NT 6.3; Win64; x64) AppleWebKit/537.36 (KHTML, like Gecko) Chrome/85.0.4183.121 Safari/537.36",39,"[0.9, 0.5, 0.1]","[0.8, 0.4, 0.2]","[u'blue', u'black', u'red']","[u'left', u'middle', u'right']","[0.9, 0.5, 0.1]","[u'low', u'medium', u'high']","black",50,"middle","medium","True","False",652,2250,NA
"A3ET6NWQH4NNDG","Sat Oct 03 2020 11:32:59 GMT-0600 (Mountain Daylight Time)","Sat Oct 03 2020 11:50:15 GMT-0600 (Mountain Daylight Time)","Mozilla/5.0 (Windows NT 6.3; Win64; x64) AppleWebKit/537.36 (KHTML, like Gecko) Chrome/85.0.4183.121 Safari/537.36",40,"[0.9, 0.5, 0.1]","[0.8, 0.4, 0.2]","[u'blue', u'black', u'red']","[u'left', u'middle', u'right']","[0.9, 0.5, 0.1]","[u'low', u'medium', u'high']","black",50,"middle","medium","True","False",428,2350,NA
"A3ET6NWQH4NNDG","Sat Oct 03 2020 11:32:59 GMT-0600 (Mountain Daylight Time)","Sat Oct 03 2020 11:50:15 GMT-0600 (Mountain Daylight Time)","Mozilla/5.0 (Windows NT 6.3; Win64; x64) AppleWebKit/537.36 (KHTML, like Gecko) Chrome/85.0.4183.121 Safari/537.36",41,"[0.9, 0.5, 0.1]","[0.8, 0.4, 0.2]","[u'blue', u'black', u'red']","[u'left', u'middle', u'right']","[0.9, 0.5, 0.1]","[u'medium', u'high', u'low']","blue",49,"left","medium","True","False",1088,2450,NA
"A3ET6NWQH4NNDG","Sat Oct 03 2020 11:32:59 GMT-0600 (Mountain Daylight Time)","Sat Oct 03 2020 11:50:15 GMT-0600 (Mountain Daylight Time)","Mozilla/5.0 (Windows NT 6.3; Win64; x64) AppleWebKit/537.36 (KHTML, like Gecko) Chrome/85.0.4183.121 Safari/537.36",42,"[0.9, 0.5, 0.1]","[0.8, 0.4, 0.2]","[u'blue', u'black', u'red']","[u'left', u'middle', u'right']","[0.9, 0.5, 0.1]","[u'medium', u'high', u'low']","blue",49,"left","medium","True","False",463,2550,NA
"A3ET6NWQH4NNDG","Sat Oct 03 2020 11:32:59 GMT-0600 (Mountain Daylight Time)","Sat Oct 03 2020 11:50:15 GMT-0600 (Mountain Daylight Time)","Mozilla/5.0 (Windows NT 6.3; Win64; x64) AppleWebKit/537.36 (KHTML, like Gecko) Chrome/85.0.4183.121 Safari/537.36",43,"[0.9, 0.5, 0.1]","[0.8, 0.4, 0.2]","[u'blue', u'black', u'red']","[u'left', u'middle', u'right']","[0.9, 0.5, 0.1]","[u'medium', u'high', u'low']","blue",49,"left","medium","True","False",623,2650,NA
"A3ET6NWQH4NNDG","Sat Oct 03 2020 11:32:59 GMT-0600 (Mountain Daylight Time)","Sat Oct 03 2020 11:50:15 GMT-0600 (Mountain Daylight Time)","Mozilla/5.0 (Windows NT 6.3; Win64; x64) AppleWebKit/537.36 (KHTML, like Gecko) Chrome/85.0.4183.121 Safari/537.36",44,"[0.9, 0.5, 0.1]","[0.8, 0.4, 0.2]","[u'blue', u'black', u'red']","[u'left', u'middle', u'right']","[0.9, 0.5, 0.1]","[u'medium', u'high', u'low']","blue",49,"left","medium","True","False",589,2750,NA
"A3ET6NWQH4NNDG","Sat Oct 03 2020 11:32:59 GMT-0600 (Mountain Daylight Time)","Sat Oct 03 2020 11:50:15 GMT-0600 (Mountain Daylight Time)","Mozilla/5.0 (Windows NT 6.3; Win64; x64) AppleWebKit/537.36 (KHTML, like Gecko) Chrome/85.0.4183.121 Safari/537.36",45,"[0.9, 0.5, 0.1]","[0.8, 0.4, 0.2]","[u'blue', u'black', u'red']","[u'left', u'middle', u'right']","[0.9, 0.5, 0.1]","[u'medium', u'high', u'low']","blue",49,"left","medium","True","False",582,2850,NA
"A3ET6NWQH4NNDG","Sat Oct 03 2020 11:32:59 GMT-0600 (Mountain Daylight Time)","Sat Oct 03 2020 11:50:15 GMT-0600 (Mountain Daylight Time)","Mozilla/5.0 (Windows NT 6.3; Win64; x64) AppleWebKit/537.36 (KHTML, like Gecko) Chrome/85.0.4183.121 Safari/537.36",46,"[0.9, 0.5, 0.1]","[0.8, 0.4, 0.2]","[u'blue', u'black', u'red']","[u'left', u'middle', u'right']","[0.9, 0.5, 0.1]","[u'medium', u'high', u'low']","blue",49,"left","medium","True","False",488,2950,NA
"A3ET6NWQH4NNDG","Sat Oct 03 2020 11:32:59 GMT-0600 (Mountain Daylight Time)","Sat Oct 03 2020 11:50:15 GMT-0600 (Mountain Daylight Time)","Mozilla/5.0 (Windows NT 6.3; Win64; x64) AppleWebKit/537.36 (KHTML, like Gecko) Chrome/85.0.4183.121 Safari/537.36",47,"[0.9, 0.5, 0.1]","[0.8, 0.4, 0.2]","[u'blue', u'black', u'red']","[u'left', u'middle', u'right']","[0.9, 0.5, 0.1]","[u'medium', u'high', u'low']","blue",49,"left","medium","True","False",608,3050,NA
"A3ET6NWQH4NNDG","Sat Oct 03 2020 11:32:59 GMT-0600 (Mountain Daylight Time)","Sat Oct 03 2020 11:50:15 GMT-0600 (Mountain Daylight Time)","Mozilla/5.0 (Windows NT 6.3; Win64; x64) AppleWebKit/537.36 (KHTML, like Gecko) Chrome/85.0.4183.121 Safari/537.36",48,"[0.9, 0.5, 0.1]","[0.8, 0.4, 0.2]","[u'blue', u'black', u'red']","[u'left', u'middle', u'right']","[0.9, 0.5, 0.1]","[u'medium', u'high', u'low']","blue",49,"left","medium","False","False",568,3000,NA
"A3ET6NWQH4NNDG","Sat Oct 03 2020 11:32:59 GMT-0600 (Mountain Daylight Time)","Sat Oct 03 2020 11:50:15 GMT-0600 (Mountain Daylight Time)","Mozilla/5.0 (Windows NT 6.3; Win64; x64) AppleWebKit/537.36 (KHTML, like Gecko) Chrome/85.0.4183.121 Safari/537.36",49,"[0.9, 0.5, 0.1]","[0.8, 0.4, 0.2]","[u'blue', u'black', u'red']","[u'left', u'middle', u'right']","[0.9, 0.5, 0.1]","[u'medium', u'high', u'low']","black",50,"middle","high","True","False",696,3100,NA
"A3ET6NWQH4NNDG","Sat Oct 03 2020 11:32:59 GMT-0600 (Mountain Daylight Time)","Sat Oct 03 2020 11:50:15 GMT-0600 (Mountain Daylight Time)","Mozilla/5.0 (Windows NT 6.3; Win64; x64) AppleWebKit/537.36 (KHTML, like Gecko) Chrome/85.0.4183.121 Safari/537.36",50,"[0.9, 0.5, 0.1]","[0.8, 0.4, 0.2]","[u'blue', u'black', u'red']","[u'left', u'middle', u'right']","[0.9, 0.5, 0.1]","[u'medium', u'high', u'low']","black",50,"middle","high","False","False",549,3050,NA
"A3ET6NWQH4NNDG","Sat Oct 03 2020 11:32:59 GMT-0600 (Mountain Daylight Time)","Sat Oct 03 2020 11:50:15 GMT-0600 (Mountain Daylight Time)","Mozilla/5.0 (Windows NT 6.3; Win64; x64) AppleWebKit/537.36 (KHTML, like Gecko) Chrome/85.0.4183.121 Safari/537.36",51,"[0.9, 0.5, 0.1]","[0.8, 0.4, 0.2]","[u'blue', u'black', u'red']","[u'left', u'middle', u'right']","[0.9, 0.5, 0.1]","[u'medium', u'high', u'low']","black",50,"middle","high","True","False",672,3150,NA
"A3ET6NWQH4NNDG","Sat Oct 03 2020 11:32:59 GMT-0600 (Mountain Daylight Time)","Sat Oct 03 2020 11:50:15 GMT-0600 (Mountain Daylight Time)","Mozilla/5.0 (Windows NT 6.3; Win64; x64) AppleWebKit/537.36 (KHTML, like Gecko) Chrome/85.0.4183.121 Safari/537.36",52,"[0.9, 0.5, 0.1]","[0.8, 0.4, 0.2]","[u'blue', u'black', u'red']","[u'left', u'middle', u'right']","[0.9, 0.5, 0.1]","[u'medium', u'high', u'low']","black",50,"middle","high","True","False",695,3250,NA
"A3ET6NWQH4NNDG","Sat Oct 03 2020 11:32:59 GMT-0600 (Mountain Daylight Time)","Sat Oct 03 2020 11:50:15 GMT-0600 (Mountain Daylight Time)","Mozilla/5.0 (Windows NT 6.3; Win64; x64) AppleWebKit/537.36 (KHTML, like Gecko) Chrome/85.0.4183.121 Safari/537.36",53,"[0.9, 0.5, 0.1]","[0.8, 0.4, 0.2]","[u'blue', u'black', u'red']","[u'left', u'middle', u'right']","[0.9, 0.5, 0.1]","[u'medium', u'high', u'low']","black",50,"middle","high","True","False",688,3350,NA
"A3ET6NWQH4NNDG","Sat Oct 03 2020 11:32:59 GMT-0600 (Mountain Daylight Time)","Sat Oct 03 2020 11:50:15 GMT-0600 (Mountain Daylight Time)","Mozilla/5.0 (Windows NT 6.3; Win64; x64) AppleWebKit/537.36 (KHTML, like Gecko) Chrome/85.0.4183.121 Safari/537.36",54,"[0.9, 0.5, 0.1]","[0.8, 0.4, 0.2]","[u'blue', u'black', u'red']","[u'left', u'middle', u'right']","[0.9, 0.5, 0.1]","[u'medium', u'high', u'low']","black",50,"middle","high","True","False",661,3450,NA
"A3ET6NWQH4NNDG","Sat Oct 03 2020 11:32:59 GMT-0600 (Mountain Daylight Time)","Sat Oct 03 2020 11:50:15 GMT-0600 (Mountain Daylight Time)","Mozilla/5.0 (Windows NT 6.3; Win64; x64) AppleWebKit/537.36 (KHTML, like Gecko) Chrome/85.0.4183.121 Safari/537.36",55,"[0.9, 0.5, 0.1]","[0.8, 0.4, 0.2]","[u'blue', u'black', u'red']","[u'left', u'middle', u'right']","[0.9, 0.5, 0.1]","[u'medium', u'high', u'low']","black",50,"middle","high","True","False",676,3550,NA
"A3ET6NWQH4NNDG","Sat Oct 03 2020 11:32:59 GMT-0600 (Mountain Daylight Time)","Sat Oct 03 2020 11:50:15 GMT-0600 (Mountain Daylight Time)","Mozilla/5.0 (Windows NT 6.3; Win64; x64) AppleWebKit/537.36 (KHTML, like Gecko) Chrome/85.0.4183.121 Safari/537.36",56,"[0.9, 0.5, 0.1]","[0.8, 0.4, 0.2]","[u'blue', u'black', u'red']","[u'left', u'middle', u'right']","[0.9, 0.5, 0.1]","[u'medium', u'high', u'low']","black",50,"middle","high","True","False",631,3650,NA
"A3ET6NWQH4NNDG","Sat Oct 03 2020 11:32:59 GMT-0600 (Mountain Daylight Time)","Sat Oct 03 2020 11:50:15 GMT-0600 (Mountain Daylight Time)","Mozilla/5.0 (Windows NT 6.3; Win64; x64) AppleWebKit/537.36 (KHTML, like Gecko) Chrome/85.0.4183.121 Safari/537.36",57,"[0.9, 0.5, 0.1]","[0.8, 0.4, 0.2]","[u'blue', u'black', u'red']","[u'left', u'middle', u'right']","[0.9, 0.5, 0.1]","[u'medium', u'high', u'low']","black",50,"middle","high","True","True",616,3750,NA
"A3ET6NWQH4NNDG","Sat Oct 03 2020 11:32:59 GMT-0600 (Mountain Daylight Time)","Sat Oct 03 2020 11:50:15 GMT-0600 (Mountain Daylight Time)","Mozilla/5.0 (Windows NT 6.3; Win64; x64) AppleWebKit/537.36 (KHTML, like Gecko) Chrome/85.0.4183.121 Safari/537.36",58,"[0.9, 0.5, 0.1]","[0.8, 0.4, 0.2]","[u'blue', u'black', u'red']","[u'left', u'middle', u'right']","[0.9, 0.5, 0.1]","[u'high', u'low', u'medium']","black",50,"middle","low","False","False",733,3700,NA
"A3ET6NWQH4NNDG","Sat Oct 03 2020 11:32:59 GMT-0600 (Mountain Daylight Time)","Sat Oct 03 2020 11:50:15 GMT-0600 (Mountain Daylight Time)","Mozilla/5.0 (Windows NT 6.3; Win64; x64) AppleWebKit/537.36 (KHTML, like Gecko) Chrome/85.0.4183.121 Safari/537.36",59,"[0.9, 0.5, 0.1]","[0.8, 0.4, 0.2]","[u'blue', u'black', u'red']","[u'left', u'middle', u'right']","[0.9, 0.5, 0.1]","[u'high', u'low', u'medium']","black",50,"middle","low","False","False",547,3650,NA
"A3ET6NWQH4NNDG","Sat Oct 03 2020 11:32:59 GMT-0600 (Mountain Daylight Time)","Sat Oct 03 2020 11:50:15 GMT-0600 (Mountain Daylight Time)","Mozilla/5.0 (Windows NT 6.3; Win64; x64) AppleWebKit/537.36 (KHTML, like Gecko) Chrome/85.0.4183.121 Safari/537.36",60,"[0.9, 0.5, 0.1]","[0.8, 0.4, 0.2]","[u'blue', u'black', u'red']","[u'left', u'middle', u'right']","[0.9, 0.5, 0.1]","[u'high', u'low', u'medium']","blue",49,"left","high","True","False",794,3750,NA
"A3ET6NWQH4NNDG","Sat Oct 03 2020 11:32:59 GMT-0600 (Mountain Daylight Time)","Sat Oct 03 2020 11:50:15 GMT-0600 (Mountain Daylight Time)","Mozilla/5.0 (Windows NT 6.3; Win64; x64) AppleWebKit/537.36 (KHTML, like Gecko) Chrome/85.0.4183.121 Safari/537.36",61,"[0.9, 0.5, 0.1]","[0.8, 0.4, 0.2]","[u'blue', u'black', u'red']","[u'left', u'middle', u'right']","[0.9, 0.5, 0.1]","[u'high', u'low', u'medium']","blue",49,"left","high","True","False",608,3850,NA
"A3ET6NWQH4NNDG","Sat Oct 03 2020 11:32:59 GMT-0600 (Mountain Daylight Time)","Sat Oct 03 2020 11:50:15 GMT-0600 (Mountain Daylight Time)","Mozilla/5.0 (Windows NT 6.3; Win64; x64) AppleWebKit/537.36 (KHTML, like Gecko) Chrome/85.0.4183.121 Safari/537.36",62,"[0.9, 0.5, 0.1]","[0.8, 0.4, 0.2]","[u'blue', u'black', u'red']","[u'left', u'middle', u'right']","[0.9, 0.5, 0.1]","[u'high', u'low', u'medium']","blue",49,"left","high","True","False",689,3950,NA
"A3ET6NWQH4NNDG","Sat Oct 03 2020 11:32:59 GMT-0600 (Mountain Daylight Time)","Sat Oct 03 2020 11:50:15 GMT-0600 (Mountain Daylight Time)","Mozilla/5.0 (Windows NT 6.3; Win64; x64) AppleWebKit/537.36 (KHTML, like Gecko) Chrome/85.0.4183.121 Safari/537.36",63,"[0.9, 0.5, 0.1]","[0.8, 0.4, 0.2]","[u'blue', u'black', u'red']","[u'left', u'middle', u'right']","[0.9, 0.5, 0.1]","[u'high', u'low', u'medium']","blue",49,"left","high","True","False",855,4050,NA
"A3ET6NWQH4NNDG","Sat Oct 03 2020 11:32:59 GMT-0600 (Mountain Daylight Time)","Sat Oct 03 2020 11:50:15 GMT-0600 (Mountain Daylight Time)","Mozilla/5.0 (Windows NT 6.3; Win64; x64) AppleWebKit/537.36 (KHTML, like Gecko) Chrome/85.0.4183.121 Safari/537.36",64,"[0.9, 0.5, 0.1]","[0.8, 0.4, 0.2]","[u'blue', u'black', u'red']","[u'left', u'middle', u'right']","[0.9, 0.5, 0.1]","[u'high', u'low', u'medium']","blue",49,"left","high","True","False",593,4150,NA
"A3ET6NWQH4NNDG","Sat Oct 03 2020 11:32:59 GMT-0600 (Mountain Daylight Time)","Sat Oct 03 2020 11:50:15 GMT-0600 (Mountain Daylight Time)","Mozilla/5.0 (Windows NT 6.3; Win64; x64) AppleWebKit/537.36 (KHTML, like Gecko) Chrome/85.0.4183.121 Safari/537.36",65,"[0.9, 0.5, 0.1]","[0.8, 0.4, 0.2]","[u'blue', u'black', u'red']","[u'left', u'middle', u'right']","[0.9, 0.5, 0.1]","[u'high', u'low', u'medium']","blue",49,"left","high","True","False",710,4250,NA
"A3ET6NWQH4NNDG","Sat Oct 03 2020 11:32:59 GMT-0600 (Mountain Daylight Time)","Sat Oct 03 2020 11:50:15 GMT-0600 (Mountain Daylight Time)","Mozilla/5.0 (Windows NT 6.3; Win64; x64) AppleWebKit/537.36 (KHTML, like Gecko) Chrome/85.0.4183.121 Safari/537.36",66,"[0.9, 0.5, 0.1]","[0.8, 0.4, 0.2]","[u'blue', u'black', u'red']","[u'left', u'middle', u'right']","[0.9, 0.5, 0.1]","[u'high', u'low', u'medium']","blue",49,"left","high","True","False",1332,4350,NA
"A3ET6NWQH4NNDG","Sat Oct 03 2020 11:32:59 GMT-0600 (Mountain Daylight Time)","Sat Oct 03 2020 11:50:15 GMT-0600 (Mountain Daylight Time)","Mozilla/5.0 (Windows NT 6.3; Win64; x64) AppleWebKit/537.36 (KHTML, like Gecko) Chrome/85.0.4183.121 Safari/537.36",67,"[0.9, 0.5, 0.1]","[0.8, 0.4, 0.2]","[u'blue', u'black', u'red']","[u'left', u'middle', u'right']","[0.9, 0.5, 0.1]","[u'high', u'low', u'medium']","blue",49,"left","high","True","False",738,4450,NA
"A3ET6NWQH4NNDG","Sat Oct 03 2020 11:32:59 GMT-0600 (Mountain Daylight Time)","Sat Oct 03 2020 11:50:15 GMT-0600 (Mountain Daylight Time)","Mozilla/5.0 (Windows NT 6.3; Win64; x64) AppleWebKit/537.36 (KHTML, like Gecko) Chrome/85.0.4183.121 Safari/537.36",68,"[0.9, 0.5, 0.1]","[0.8, 0.4, 0.2]","[u'blue', u'black', u'red']","[u'left', u'middle', u'right']","[0.9, 0.5, 0.1]","[u'high', u'low', u'medium']","blue",49,"left","high","False","True",741,4400,NA
"A3ET6NWQH4NNDG","Sat Oct 03 2020 11:32:59 GMT-0600 (Mountain Daylight Time)","Sat Oct 03 2020 11:50:15 GMT-0600 (Mountain Daylight Time)","Mozilla/5.0 (Windows NT 6.3; Win64; x64) AppleWebKit/537.36 (KHTML, like Gecko) Chrome/85.0.4183.121 Safari/537.36",69,"[0.9, 0.5, 0.1]","[0.8, 0.4, 0.2]","[u'blue', u'black', u'red']","[u'left', u'middle', u'right']","[0.9, 0.5, 0.1]","[u'medium', u'low', u'high']","black",50,"middle","low","False","False",146,4350,NA
"A3ET6NWQH4NNDG","Sat Oct 03 2020 11:32:59 GMT-0600 (Mountain Daylight Time)","Sat Oct 03 2020 11:50:15 GMT-0600 (Mountain Daylight Time)","Mozilla/5.0 (Windows NT 6.3; Win64; x64) AppleWebKit/537.36 (KHTML, like Gecko) Chrome/85.0.4183.121 Safari/537.36",70,"[0.9, 0.5, 0.1]","[0.8, 0.4, 0.2]","[u'blue', u'black', u'red']","[u'left', u'middle', u'right']","[0.9, 0.5, 0.1]","[u'medium', u'low', u'high']","blue",49,"left","medium","False","False",234,4300,NA
"A3ET6NWQH4NNDG","Sat Oct 03 2020 11:32:59 GMT-0600 (Mountain Daylight Time)","Sat Oct 03 2020 11:50:15 GMT-0600 (Mountain Daylight Time)","Mozilla/5.0 (Windows NT 6.3; Win64; x64) AppleWebKit/537.36 (KHTML, like Gecko) Chrome/85.0.4183.121 Safari/537.36",71,"[0.9, 0.5, 0.1]","[0.8, 0.4, 0.2]","[u'blue', u'black', u'red']","[u'left', u'middle', u'right']","[0.9, 0.5, 0.1]","[u'medium', u'low', u'high']","black",50,"middle","low","False","False",470,4250,NA
"A3ET6NWQH4NNDG","Sat Oct 03 2020 11:32:59 GMT-0600 (Mountain Daylight Time)","Sat Oct 03 2020 11:50:15 GMT-0600 (Mountain Daylight Time)","Mozilla/5.0 (Windows NT 6.3; Win64; x64) AppleWebKit/537.36 (KHTML, like Gecko) Chrome/85.0.4183.121 Safari/537.36",72,"[0.9, 0.5, 0.1]","[0.8, 0.4, 0.2]","[u'blue', u'black', u'red']","[u'left', u'middle', u'right']","[0.9, 0.5, 0.1]","[u'medium', u'low', u'high']","red",51,"right","high","True","False",315,4350,NA
"A3ET6NWQH4NNDG","Sat Oct 03 2020 11:32:59 GMT-0600 (Mountain Daylight Time)","Sat Oct 03 2020 11:50:15 GMT-0600 (Mountain Daylight Time)","Mozilla/5.0 (Windows NT 6.3; Win64; x64) AppleWebKit/537.36 (KHTML, like Gecko) Chrome/85.0.4183.121 Safari/537.36",73,"[0.9, 0.5, 0.1]","[0.8, 0.4, 0.2]","[u'blue', u'black', u'red']","[u'left', u'middle', u'right']","[0.9, 0.5, 0.1]","[u'medium', u'low', u'high']","red",51,"right","high","True","False",223,4450,NA
"A3ET6NWQH4NNDG","Sat Oct 03 2020 11:32:59 GMT-0600 (Mountain Daylight Time)","Sat Oct 03 2020 11:50:15 GMT-0600 (Mountain Daylight Time)","Mozilla/5.0 (Windows NT 6.3; Win64; x64) AppleWebKit/537.36 (KHTML, like Gecko) Chrome/85.0.4183.121 Safari/537.36",74,"[0.9, 0.5, 0.1]","[0.8, 0.4, 0.2]","[u'blue', u'black', u'red']","[u'left', u'middle', u'right']","[0.9, 0.5, 0.1]","[u'medium', u'low', u'high']","red",51,"right","high","True","False",1195,4550,NA
"A3ET6NWQH4NNDG","Sat Oct 03 2020 11:32:59 GMT-0600 (Mountain Daylight Time)","Sat Oct 03 2020 11:50:15 GMT-0600 (Mountain Daylight Time)","Mozilla/5.0 (Windows NT 6.3; Win64; x64) AppleWebKit/537.36 (KHTML, like Gecko) Chrome/85.0.4183.121 Safari/537.36",75,"[0.9, 0.5, 0.1]","[0.8, 0.4, 0.2]","[u'blue', u'black', u'red']","[u'left', u'middle', u'right']","[0.9, 0.5, 0.1]","[u'medium', u'low', u'high']","red",51,"right","high","True","False",783,4650,NA
"A3ET6NWQH4NNDG","Sat Oct 03 2020 11:32:59 GMT-0600 (Mountain Daylight Time)","Sat Oct 03 2020 11:50:15 GMT-0600 (Mountain Daylight Time)","Mozilla/5.0 (Windows NT 6.3; Win64; x64) AppleWebKit/537.36 (KHTML, like Gecko) Chrome/85.0.4183.121 Safari/537.36",76,"[0.9, 0.5, 0.1]","[0.8, 0.4, 0.2]","[u'blue', u'black', u'red']","[u'left', u'middle', u'right']","[0.9, 0.5, 0.1]","[u'medium', u'low', u'high']","red",51,"right","high","True","False",747,4750,NA
"A3ET6NWQH4NNDG","Sat Oct 03 2020 11:32:59 GMT-0600 (Mountain Daylight Time)","Sat Oct 03 2020 11:50:15 GMT-0600 (Mountain Daylight Time)","Mozilla/5.0 (Windows NT 6.3; Win64; x64) AppleWebKit/537.36 (KHTML, like Gecko) Chrome/85.0.4183.121 Safari/537.36",77,"[0.9, 0.5, 0.1]","[0.8, 0.4, 0.2]","[u'blue', u'black', u'red']","[u'left', u'middle', u'right']","[0.9, 0.5, 0.1]","[u'medium', u'low', u'high']","red",51,"right","high","True","False",627,4850,NA
"A3ET6NWQH4NNDG","Sat Oct 03 2020 11:32:59 GMT-0600 (Mountain Daylight Time)","Sat Oct 03 2020 11:50:15 GMT-0600 (Mountain Daylight Time)","Mozilla/5.0 (Windows NT 6.3; Win64; x64) AppleWebKit/537.36 (KHTML, like Gecko) Chrome/85.0.4183.121 Safari/537.36",78,"[0.9, 0.5, 0.1]","[0.8, 0.4, 0.2]","[u'blue', u'black', u'red']","[u'left', u'middle', u'right']","[0.9, 0.5, 0.1]","[u'medium', u'low', u'high']","red",51,"right","high","True","False",847,4950,NA
"A3ET6NWQH4NNDG","Sat Oct 03 2020 11:32:59 GMT-0600 (Mountain Daylight Time)","Sat Oct 03 2020 11:50:15 GMT-0600 (Mountain Daylight Time)","Mozilla/5.0 (Windows NT 6.3; Win64; x64) AppleWebKit/537.36 (KHTML, like Gecko) Chrome/85.0.4183.121 Safari/537.36",79,"[0.9, 0.5, 0.1]","[0.8, 0.4, 0.2]","[u'blue', u'black', u'red']","[u'left', u'middle', u'right']","[0.9, 0.5, 0.1]","[u'medium', u'low', u'high']","red",51,"right","high","True","False",591,5050,NA
"A3ET6NWQH4NNDG","Sat Oct 03 2020 11:32:59 GMT-0600 (Mountain Daylight Time)","Sat Oct 03 2020 11:50:15 GMT-0600 (Mountain Daylight Time)","Mozilla/5.0 (Windows NT 6.3; Win64; x64) AppleWebKit/537.36 (KHTML, like Gecko) Chrome/85.0.4183.121 Safari/537.36",80,"[0.9, 0.5, 0.1]","[0.8, 0.4, 0.2]","[u'blue', u'black', u'red']","[u'left', u'middle', u'right']","[0.9, 0.5, 0.1]","[u'medium', u'low', u'high']","red",51,"right","high","True","True",906,5150,NA
"A3ET6NWQH4NNDG","Sat Oct 03 2020 11:32:59 GMT-0600 (Mountain Daylight Time)","Sat Oct 03 2020 11:50:15 GMT-0600 (Mountain Daylight Time)","Mozilla/5.0 (Windows NT 6.3; Win64; x64) AppleWebKit/537.36 (KHTML, like Gecko) Chrome/85.0.4183.121 Safari/537.36",81,"[0.9, 0.5, 0.1]","[0.8, 0.4, 0.2]","[u'blue', u'black', u'red']","[u'left', u'middle', u'right']","[0.8, 0.4, 0.2]","[u'high', u'medium', u'low']","blue",49,"left","high","True","False",1079,5250,NA
"A3ET6NWQH4NNDG","Sat Oct 03 2020 11:32:59 GMT-0600 (Mountain Daylight Time)","Sat Oct 03 2020 11:50:15 GMT-0600 (Mountain Daylight Time)","Mozilla/5.0 (Windows NT 6.3; Win64; x64) AppleWebKit/537.36 (KHTML, like Gecko) Chrome/85.0.4183.121 Safari/537.36",82,"[0.9, 0.5, 0.1]","[0.8, 0.4, 0.2]","[u'blue', u'black', u'red']","[u'left', u'middle', u'right']","[0.8, 0.4, 0.2]","[u'high', u'medium', u'low']","blue",49,"left","high","False","False",582,5200,NA
"A3ET6NWQH4NNDG","Sat Oct 03 2020 11:32:59 GMT-0600 (Mountain Daylight Time)","Sat Oct 03 2020 11:50:15 GMT-0600 (Mountain Daylight Time)","Mozilla/5.0 (Windows NT 6.3; Win64; x64) AppleWebKit/537.36 (KHTML, like Gecko) Chrome/85.0.4183.121 Safari/537.36",83,"[0.9, 0.5, 0.1]","[0.8, 0.4, 0.2]","[u'blue', u'black', u'red']","[u'left', u'middle', u'right']","[0.8, 0.4, 0.2]","[u'high', u'medium', u'low']","blue",49,"left","high","True","False",484,5300,NA
"A3ET6NWQH4NNDG","Sat Oct 03 2020 11:32:59 GMT-0600 (Mountain Daylight Time)","Sat Oct 03 2020 11:50:15 GMT-0600 (Mountain Daylight Time)","Mozilla/5.0 (Windows NT 6.3; Win64; x64) AppleWebKit/537.36 (KHTML, like Gecko) Chrome/85.0.4183.121 Safari/537.36",84,"[0.9, 0.5, 0.1]","[0.8, 0.4, 0.2]","[u'blue', u'black', u'red']","[u'left', u'middle', u'right']","[0.8, 0.4, 0.2]","[u'high', u'medium', u'low']","blue",49,"left","high","True","False",459,5400,NA
"A3ET6NWQH4NNDG","Sat Oct 03 2020 11:32:59 GMT-0600 (Mountain Daylight Time)","Sat Oct 03 2020 11:50:15 GMT-0600 (Mountain Daylight Time)","Mozilla/5.0 (Windows NT 6.3; Win64; x64) AppleWebKit/537.36 (KHTML, like Gecko) Chrome/85.0.4183.121 Safari/537.36",85,"[0.9, 0.5, 0.1]","[0.8, 0.4, 0.2]","[u'blue', u'black', u'red']","[u'left', u'middle', u'right']","[0.8, 0.4, 0.2]","[u'high', u'medium', u'low']","blue",49,"left","high","True","False",288,5500,NA
"A3ET6NWQH4NNDG","Sat Oct 03 2020 11:32:59 GMT-0600 (Mountain Daylight Time)","Sat Oct 03 2020 11:50:15 GMT-0600 (Mountain Daylight Time)","Mozilla/5.0 (Windows NT 6.3; Win64; x64) AppleWebKit/537.36 (KHTML, like Gecko) Chrome/85.0.4183.121 Safari/537.36",86,"[0.9, 0.5, 0.1]","[0.8, 0.4, 0.2]","[u'blue', u'black', u'red']","[u'left', u'middle', u'right']","[0.8, 0.4, 0.2]","[u'high', u'medium', u'low']","blue",49,"left","high","False","False",591,5450,NA
"A3ET6NWQH4NNDG","Sat Oct 03 2020 11:32:59 GMT-0600 (Mountain Daylight Time)","Sat Oct 03 2020 11:50:15 GMT-0600 (Mountain Daylight Time)","Mozilla/5.0 (Windows NT 6.3; Win64; x64) AppleWebKit/537.36 (KHTML, like Gecko) Chrome/85.0.4183.121 Safari/537.36",87,"[0.9, 0.5, 0.1]","[0.8, 0.4, 0.2]","[u'blue', u'black', u'red']","[u'left', u'middle', u'right']","[0.8, 0.4, 0.2]","[u'high', u'medium', u'low']","blue",49,"left","high","True","False",536,5550,NA
"A3ET6NWQH4NNDG","Sat Oct 03 2020 11:32:59 GMT-0600 (Mountain Daylight Time)","Sat Oct 03 2020 11:50:15 GMT-0600 (Mountain Daylight Time)","Mozilla/5.0 (Windows NT 6.3; Win64; x64) AppleWebKit/537.36 (KHTML, like Gecko) Chrome/85.0.4183.121 Safari/537.36",88,"[0.9, 0.5, 0.1]","[0.8, 0.4, 0.2]","[u'blue', u'black', u'red']","[u'left', u'middle', u'right']","[0.8, 0.4, 0.2]","[u'high', u'medium', u'low']","blue",49,"left","high","True","False",757,5650,NA
"A3ET6NWQH4NNDG","Sat Oct 03 2020 11:32:59 GMT-0600 (Mountain Daylight Time)","Sat Oct 03 2020 11:50:15 GMT-0600 (Mountain Daylight Time)","Mozilla/5.0 (Windows NT 6.3; Win64; x64) AppleWebKit/537.36 (KHTML, like Gecko) Chrome/85.0.4183.121 Safari/537.36",89,"[0.9, 0.5, 0.1]","[0.8, 0.4, 0.2]","[u'blue', u'black', u'red']","[u'left', u'middle', u'right']","[0.8, 0.4, 0.2]","[u'high', u'medium', u'low']","blue",49,"left","high","True","True",724,5750,NA
"A3ET6NWQH4NNDG","Sat Oct 03 2020 11:32:59 GMT-0600 (Mountain Daylight Time)","Sat Oct 03 2020 11:50:15 GMT-0600 (Mountain Daylight Time)","Mozilla/5.0 (Windows NT 6.3; Win64; x64) AppleWebKit/537.36 (KHTML, like Gecko) Chrome/85.0.4183.121 Safari/537.36",90,"[0.9, 0.5, 0.1]","[0.8, 0.4, 0.2]","[u'blue', u'black', u'red']","[u'left', u'middle', u'right']","[0.8, 0.4, 0.2]","[u'medium', u'low', u'high']","blue",49,"left","medium","False","False",812,5700,NA
"A3ET6NWQH4NNDG","Sat Oct 03 2020 11:32:59 GMT-0600 (Mountain Daylight Time)","Sat Oct 03 2020 11:50:15 GMT-0600 (Mountain Daylight Time)","Mozilla/5.0 (Windows NT 6.3; Win64; x64) AppleWebKit/537.36 (KHTML, like Gecko) Chrome/85.0.4183.121 Safari/537.36",91,"[0.9, 0.5, 0.1]","[0.8, 0.4, 0.2]","[u'blue', u'black', u'red']","[u'left', u'middle', u'right']","[0.8, 0.4, 0.2]","[u'medium', u'low', u'high']","blue",49,"left","medium","False","False",93,5650,NA
"A3ET6NWQH4NNDG","Sat Oct 03 2020 11:32:59 GMT-0600 (Mountain Daylight Time)","Sat Oct 03 2020 11:50:15 GMT-0600 (Mountain Daylight Time)","Mozilla/5.0 (Windows NT 6.3; Win64; x64) AppleWebKit/537.36 (KHTML, like Gecko) Chrome/85.0.4183.121 Safari/537.36",92,"[0.9, 0.5, 0.1]","[0.8, 0.4, 0.2]","[u'blue', u'black', u'red']","[u'left', u'middle', u'right']","[0.8, 0.4, 0.2]","[u'medium', u'low', u'high']","black",50,"middle","low","False","False",990,5600,NA
"A3ET6NWQH4NNDG","Sat Oct 03 2020 11:32:59 GMT-0600 (Mountain Daylight Time)","Sat Oct 03 2020 11:50:15 GMT-0600 (Mountain Daylight Time)","Mozilla/5.0 (Windows NT 6.3; Win64; x64) AppleWebKit/537.36 (KHTML, like Gecko) Chrome/85.0.4183.121 Safari/537.36",93,"[0.9, 0.5, 0.1]","[0.8, 0.4, 0.2]","[u'blue', u'black', u'red']","[u'left', u'middle', u'right']","[0.8, 0.4, 0.2]","[u'medium', u'low', u'high']","red",51,"right","high","True","False",231,5700,NA
"A3ET6NWQH4NNDG","Sat Oct 03 2020 11:32:59 GMT-0600 (Mountain Daylight Time)","Sat Oct 03 2020 11:50:15 GMT-0600 (Mountain Daylight Time)","Mozilla/5.0 (Windows NT 6.3; Win64; x64) AppleWebKit/537.36 (KHTML, like Gecko) Chrome/85.0.4183.121 Safari/537.36",94,"[0.9, 0.5, 0.1]","[0.8, 0.4, 0.2]","[u'blue', u'black', u'red']","[u'left', u'middle', u'right']","[0.8, 0.4, 0.2]","[u'medium', u'low', u'high']","red",51,"right","high","True","False",374,5800,NA
"A3ET6NWQH4NNDG","Sat Oct 03 2020 11:32:59 GMT-0600 (Mountain Daylight Time)","Sat Oct 03 2020 11:50:15 GMT-0600 (Mountain Daylight Time)","Mozilla/5.0 (Windows NT 6.3; Win64; x64) AppleWebKit/537.36 (KHTML, like Gecko) Chrome/85.0.4183.121 Safari/537.36",95,"[0.9, 0.5, 0.1]","[0.8, 0.4, 0.2]","[u'blue', u'black', u'red']","[u'left', u'middle', u'right']","[0.8, 0.4, 0.2]","[u'medium', u'low', u'high']","red",51,"right","high","False","False",245,5750,NA
"A3ET6NWQH4NNDG","Sat Oct 03 2020 11:32:59 GMT-0600 (Mountain Daylight Time)","Sat Oct 03 2020 11:50:15 GMT-0600 (Mountain Daylight Time)","Mozilla/5.0 (Windows NT 6.3; Win64; x64) AppleWebKit/537.36 (KHTML, like Gecko) Chrome/85.0.4183.121 Safari/537.36",96,"[0.9, 0.5, 0.1]","[0.8, 0.4, 0.2]","[u'blue', u'black', u'red']","[u'left', u'middle', u'right']","[0.8, 0.4, 0.2]","[u'medium', u'low', u'high']","red",51,"right","high","True","False",1449,5850,NA
"A3ET6NWQH4NNDG","Sat Oct 03 2020 11:32:59 GMT-0600 (Mountain Daylight Time)","Sat Oct 03 2020 11:50:15 GMT-0600 (Mountain Daylight Time)","Mozilla/5.0 (Windows NT 6.3; Win64; x64) AppleWebKit/537.36 (KHTML, like Gecko) Chrome/85.0.4183.121 Safari/537.36",97,"[0.9, 0.5, 0.1]","[0.8, 0.4, 0.2]","[u'blue', u'black', u'red']","[u'left', u'middle', u'right']","[0.8, 0.4, 0.2]","[u'medium', u'low', u'high']","red",51,"right","high","True","False",288,5950,NA
"A3ET6NWQH4NNDG","Sat Oct 03 2020 11:32:59 GMT-0600 (Mountain Daylight Time)","Sat Oct 03 2020 11:50:15 GMT-0600 (Mountain Daylight Time)","Mozilla/5.0 (Windows NT 6.3; Win64; x64) AppleWebKit/537.36 (KHTML, like Gecko) Chrome/85.0.4183.121 Safari/537.36",98,"[0.9, 0.5, 0.1]","[0.8, 0.4, 0.2]","[u'blue', u'black', u'red']","[u'left', u'middle', u'right']","[0.8, 0.4, 0.2]","[u'medium', u'low', u'high']","red",51,"right","high","True","False",202,6050,NA
"A3ET6NWQH4NNDG","Sat Oct 03 2020 11:32:59 GMT-0600 (Mountain Daylight Time)","Sat Oct 03 2020 11:50:15 GMT-0600 (Mountain Daylight Time)","Mozilla/5.0 (Windows NT 6.3; Win64; x64) AppleWebKit/537.36 (KHTML, like Gecko) Chrome/85.0.4183.121 Safari/537.36",99,"[0.9, 0.5, 0.1]","[0.8, 0.4, 0.2]","[u'blue', u'black', u'red']","[u'left', u'middle', u'right']","[0.8, 0.4, 0.2]","[u'medium', u'low', u'high']","red",51,"right","high","True","False",451,6150,NA
"A3ET6NWQH4NNDG","Sat Oct 03 2020 11:32:59 GMT-0600 (Mountain Daylight Time)","Sat Oct 03 2020 11:50:15 GMT-0600 (Mountain Daylight Time)","Mozilla/5.0 (Windows NT 6.3; Win64; x64) AppleWebKit/537.36 (KHTML, like Gecko) Chrome/85.0.4183.121 Safari/537.36",100,"[0.9, 0.5, 0.1]","[0.8, 0.4, 0.2]","[u'blue', u'black', u'red']","[u'left', u'middle', u'right']","[0.8, 0.4, 0.2]","[u'medium', u'low', u'high']","red",51,"right","high","True","False",525,6250,NA
"A3ET6NWQH4NNDG","Sat Oct 03 2020 11:32:59 GMT-0600 (Mountain Daylight Time)","Sat Oct 03 2020 11:50:15 GMT-0600 (Mountain Daylight Time)","Mozilla/5.0 (Windows NT 6.3; Win64; x64) AppleWebKit/537.36 (KHTML, like Gecko) Chrome/85.0.4183.121 Safari/537.36",101,"[0.9, 0.5, 0.1]","[0.8, 0.4, 0.2]","[u'blue', u'black', u'red']","[u'left', u'middle', u'right']","[0.8, 0.4, 0.2]","[u'medium', u'low', u'high']","red",51,"right","high","True","True",521,6350,NA
"A3ET6NWQH4NNDG","Sat Oct 03 2020 11:32:59 GMT-0600 (Mountain Daylight Time)","Sat Oct 03 2020 11:50:15 GMT-0600 (Mountain Daylight Time)","Mozilla/5.0 (Windows NT 6.3; Win64; x64) AppleWebKit/537.36 (KHTML, like Gecko) Chrome/85.0.4183.121 Safari/537.36",102,"[0.9, 0.5, 0.1]","[0.8, 0.4, 0.2]","[u'blue', u'black', u'red']","[u'left', u'middle', u'right']","[0.8, 0.4, 0.2]","[u'high', u'low', u'medium']","red",51,"right","medium","True","False",594,6450,NA
"A3ET6NWQH4NNDG","Sat Oct 03 2020 11:32:59 GMT-0600 (Mountain Daylight Time)","Sat Oct 03 2020 11:50:15 GMT-0600 (Mountain Daylight Time)","Mozilla/5.0 (Windows NT 6.3; Win64; x64) AppleWebKit/537.36 (KHTML, like Gecko) Chrome/85.0.4183.121 Safari/537.36",103,"[0.9, 0.5, 0.1]","[0.8, 0.4, 0.2]","[u'blue', u'black', u'red']","[u'left', u'middle', u'right']","[0.8, 0.4, 0.2]","[u'high', u'low', u'medium']","red",51,"right","medium","False","False",374,6400,NA
"A3ET6NWQH4NNDG","Sat Oct 03 2020 11:32:59 GMT-0600 (Mountain Daylight Time)","Sat Oct 03 2020 11:50:15 GMT-0600 (Mountain Daylight Time)","Mozilla/5.0 (Windows NT 6.3; Win64; x64) AppleWebKit/537.36 (KHTML, like Gecko) Chrome/85.0.4183.121 Safari/537.36",104,"[0.9, 0.5, 0.1]","[0.8, 0.4, 0.2]","[u'blue', u'black', u'red']","[u'left', u'middle', u'right']","[0.8, 0.4, 0.2]","[u'high', u'low', u'medium']","blue",49,"left","high","True","False",561,6500,NA
"A3ET6NWQH4NNDG","Sat Oct 03 2020 11:32:59 GMT-0600 (Mountain Daylight Time)","Sat Oct 03 2020 11:50:15 GMT-0600 (Mountain Daylight Time)","Mozilla/5.0 (Windows NT 6.3; Win64; x64) AppleWebKit/537.36 (KHTML, like Gecko) Chrome/85.0.4183.121 Safari/537.36",105,"[0.9, 0.5, 0.1]","[0.8, 0.4, 0.2]","[u'blue', u'black', u'red']","[u'left', u'middle', u'right']","[0.8, 0.4, 0.2]","[u'high', u'low', u'medium']","blue",49,"left","high","False","False",198,6450,NA
"A3ET6NWQH4NNDG","Sat Oct 03 2020 11:32:59 GMT-0600 (Mountain Daylight Time)","Sat Oct 03 2020 11:50:15 GMT-0600 (Mountain Daylight Time)","Mozilla/5.0 (Windows NT 6.3; Win64; x64) AppleWebKit/537.36 (KHTML, like Gecko) Chrome/85.0.4183.121 Safari/537.36",106,"[0.9, 0.5, 0.1]","[0.8, 0.4, 0.2]","[u'blue', u'black', u'red']","[u'left', u'middle', u'right']","[0.8, 0.4, 0.2]","[u'high', u'low', u'medium']","black",50,"middle","low","True","False",182,6550,NA
"A3ET6NWQH4NNDG","Sat Oct 03 2020 11:32:59 GMT-0600 (Mountain Daylight Time)","Sat Oct 03 2020 11:50:15 GMT-0600 (Mountain Daylight Time)","Mozilla/5.0 (Windows NT 6.3; Win64; x64) AppleWebKit/537.36 (KHTML, like Gecko) Chrome/85.0.4183.121 Safari/537.36",107,"[0.9, 0.5, 0.1]","[0.8, 0.4, 0.2]","[u'blue', u'black', u'red']","[u'left', u'middle', u'right']","[0.8, 0.4, 0.2]","[u'high', u'low', u'medium']","black",50,"middle","low","False","False",214,6500,NA
"A3ET6NWQH4NNDG","Sat Oct 03 2020 11:32:59 GMT-0600 (Mountain Daylight Time)","Sat Oct 03 2020 11:50:15 GMT-0600 (Mountain Daylight Time)","Mozilla/5.0 (Windows NT 6.3; Win64; x64) AppleWebKit/537.36 (KHTML, like Gecko) Chrome/85.0.4183.121 Safari/537.36",108,"[0.9, 0.5, 0.1]","[0.8, 0.4, 0.2]","[u'blue', u'black', u'red']","[u'left', u'middle', u'right']","[0.8, 0.4, 0.2]","[u'high', u'low', u'medium']","blue",49,"left","high","True","False",249,6600,NA
"A3ET6NWQH4NNDG","Sat Oct 03 2020 11:32:59 GMT-0600 (Mountain Daylight Time)","Sat Oct 03 2020 11:50:15 GMT-0600 (Mountain Daylight Time)","Mozilla/5.0 (Windows NT 6.3; Win64; x64) AppleWebKit/537.36 (KHTML, like Gecko) Chrome/85.0.4183.121 Safari/537.36",109,"[0.9, 0.5, 0.1]","[0.8, 0.4, 0.2]","[u'blue', u'black', u'red']","[u'left', u'middle', u'right']","[0.8, 0.4, 0.2]","[u'high', u'low', u'medium']","blue",49,"left","high","True","False",290,6700,NA
"A3ET6NWQH4NNDG","Sat Oct 03 2020 11:32:59 GMT-0600 (Mountain Daylight Time)","Sat Oct 03 2020 11:50:15 GMT-0600 (Mountain Daylight Time)","Mozilla/5.0 (Windows NT 6.3; Win64; x64) AppleWebKit/537.36 (KHTML, like Gecko) Chrome/85.0.4183.121 Safari/537.36",110,"[0.9, 0.5, 0.1]","[0.8, 0.4, 0.2]","[u'blue', u'black', u'red']","[u'left', u'middle', u'right']","[0.8, 0.4, 0.2]","[u'high', u'low', u'medium']","blue",49,"left","high","True","False",412,6800,NA
"A3ET6NWQH4NNDG","Sat Oct 03 2020 11:32:59 GMT-0600 (Mountain Daylight Time)","Sat Oct 03 2020 11:50:15 GMT-0600 (Mountain Daylight Time)","Mozilla/5.0 (Windows NT 6.3; Win64; x64) AppleWebKit/537.36 (KHTML, like Gecko) Chrome/85.0.4183.121 Safari/537.36",111,"[0.9, 0.5, 0.1]","[0.8, 0.4, 0.2]","[u'blue', u'black', u'red']","[u'left', u'middle', u'right']","[0.8, 0.4, 0.2]","[u'high', u'low', u'medium']","blue",49,"left","high","True","False",460,6900,NA
"A3ET6NWQH4NNDG","Sat Oct 03 2020 11:32:59 GMT-0600 (Mountain Daylight Time)","Sat Oct 03 2020 11:50:15 GMT-0600 (Mountain Daylight Time)","Mozilla/5.0 (Windows NT 6.3; Win64; x64) AppleWebKit/537.36 (KHTML, like Gecko) Chrome/85.0.4183.121 Safari/537.36",112,"[0.9, 0.5, 0.1]","[0.8, 0.4, 0.2]","[u'blue', u'black', u'red']","[u'left', u'middle', u'right']","[0.8, 0.4, 0.2]","[u'high', u'low', u'medium']","blue",49,"left","high","True","False",449,7000,NA
"A3ET6NWQH4NNDG","Sat Oct 03 2020 11:32:59 GMT-0600 (Mountain Daylight Time)","Sat Oct 03 2020 11:50:15 GMT-0600 (Mountain Daylight Time)","Mozilla/5.0 (Windows NT 6.3; Win64; x64) AppleWebKit/537.36 (KHTML, like Gecko) Chrome/85.0.4183.121 Safari/537.36",113,"[0.9, 0.5, 0.1]","[0.8, 0.4, 0.2]","[u'blue', u'black', u'red']","[u'left', u'middle', u'right']","[0.8, 0.4, 0.2]","[u'high', u'low', u'medium']","blue",49,"left","high","False","False",638,6950,NA
"A3ET6NWQH4NNDG","Sat Oct 03 2020 11:32:59 GMT-0600 (Mountain Daylight Time)","Sat Oct 03 2020 11:50:15 GMT-0600 (Mountain Daylight Time)","Mozilla/5.0 (Windows NT 6.3; Win64; x64) AppleWebKit/537.36 (KHTML, like Gecko) Chrome/85.0.4183.121 Safari/537.36",114,"[0.9, 0.5, 0.1]","[0.8, 0.4, 0.2]","[u'blue', u'black', u'red']","[u'left', u'middle', u'right']","[0.8, 0.4, 0.2]","[u'high', u'low', u'medium']","red",51,"right","medium","False","False",477,6900,NA
"A3ET6NWQH4NNDG","Sat Oct 03 2020 11:32:59 GMT-0600 (Mountain Daylight Time)","Sat Oct 03 2020 11:50:15 GMT-0600 (Mountain Daylight Time)","Mozilla/5.0 (Windows NT 6.3; Win64; x64) AppleWebKit/537.36 (KHTML, like Gecko) Chrome/85.0.4183.121 Safari/537.36",115,"[0.9, 0.5, 0.1]","[0.8, 0.4, 0.2]","[u'blue', u'black', u'red']","[u'left', u'middle', u'right']","[0.8, 0.4, 0.2]","[u'high', u'low', u'medium']","black",50,"middle","low","True","False",225,7000,NA
"A3ET6NWQH4NNDG","Sat Oct 03 2020 11:32:59 GMT-0600 (Mountain Daylight Time)","Sat Oct 03 2020 11:50:15 GMT-0600 (Mountain Daylight Time)","Mozilla/5.0 (Windows NT 6.3; Win64; x64) AppleWebKit/537.36 (KHTML, like Gecko) Chrome/85.0.4183.121 Safari/537.36",116,"[0.9, 0.5, 0.1]","[0.8, 0.4, 0.2]","[u'blue', u'black', u'red']","[u'left', u'middle', u'right']","[0.8, 0.4, 0.2]","[u'high', u'low', u'medium']","black",50,"middle","low","False","False",456,6950,NA
"A3ET6NWQH4NNDG","Sat Oct 03 2020 11:32:59 GMT-0600 (Mountain Daylight Time)","Sat Oct 03 2020 11:50:15 GMT-0600 (Mountain Daylight Time)","Mozilla/5.0 (Windows NT 6.3; Win64; x64) AppleWebKit/537.36 (KHTML, like Gecko) Chrome/85.0.4183.121 Safari/537.36",117,"[0.9, 0.5, 0.1]","[0.8, 0.4, 0.2]","[u'blue', u'black', u'red']","[u'left', u'middle', u'right']","[0.8, 0.4, 0.2]","[u'high', u'low', u'medium']","blue",49,"left","high","True","False",256,7050,NA
"A3ET6NWQH4NNDG","Sat Oct 03 2020 11:32:59 GMT-0600 (Mountain Daylight Time)","Sat Oct 03 2020 11:50:15 GMT-0600 (Mountain Daylight Time)","Mozilla/5.0 (Windows NT 6.3; Win64; x64) AppleWebKit/537.36 (KHTML, like Gecko) Chrome/85.0.4183.121 Safari/537.36",118,"[0.9, 0.5, 0.1]","[0.8, 0.4, 0.2]","[u'blue', u'black', u'red']","[u'left', u'middle', u'right']","[0.8, 0.4, 0.2]","[u'high', u'low', u'medium']","blue",49,"left","high","True","False",757,7150,NA
"A3ET6NWQH4NNDG","Sat Oct 03 2020 11:32:59 GMT-0600 (Mountain Daylight Time)","Sat Oct 03 2020 11:50:15 GMT-0600 (Mountain Daylight Time)","Mozilla/5.0 (Windows NT 6.3; Win64; x64) AppleWebKit/537.36 (KHTML, like Gecko) Chrome/85.0.4183.121 Safari/537.36",119,"[0.9, 0.5, 0.1]","[0.8, 0.4, 0.2]","[u'blue', u'black', u'red']","[u'left', u'middle', u'right']","[0.8, 0.4, 0.2]","[u'high', u'low', u'medium']","blue",49,"left","high","True","False",796,7250,NA
"A3ET6NWQH4NNDG","Sat Oct 03 2020 11:32:59 GMT-0600 (Mountain Daylight Time)","Sat Oct 03 2020 11:50:15 GMT-0600 (Mountain Daylight Time)","Mozilla/5.0 (Windows NT 6.3; Win64; x64) AppleWebKit/537.36 (KHTML, like Gecko) Chrome/85.0.4183.121 Safari/537.36",120,"[0.9, 0.5, 0.1]","[0.8, 0.4, 0.2]","[u'blue', u'black', u'red']","[u'left', u'middle', u'right']","[0.8, 0.4, 0.2]","[u'high', u'low', u'medium']","blue",49,"left","high","True","False",1362,7350,NA
"A3ET6NWQH4NNDG","Sat Oct 03 2020 11:32:59 GMT-0600 (Mountain Daylight Time)","Sat Oct 03 2020 11:50:15 GMT-0600 (Mountain Daylight Time)","Mozilla/5.0 (Windows NT 6.3; Win64; x64) AppleWebKit/537.36 (KHTML, like Gecko) Chrome/85.0.4183.121 Safari/537.36",121,"[0.9, 0.5, 0.1]","[0.8, 0.4, 0.2]","[u'blue', u'black', u'red']","[u'left', u'middle', u'right']","[0.8, 0.4, 0.2]","[u'medium', u'high', u'low']","black",50,"middle","high","True","False",1419,7450,NA
"A3ET6NWQH4NNDG","Sat Oct 03 2020 11:32:59 GMT-0600 (Mountain Daylight Time)","Sat Oct 03 2020 11:50:15 GMT-0600 (Mountain Daylight Time)","Mozilla/5.0 (Windows NT 6.3; Win64; x64) AppleWebKit/537.36 (KHTML, like Gecko) Chrome/85.0.4183.121 Safari/537.36",122,"[0.9, 0.5, 0.1]","[0.8, 0.4, 0.2]","[u'blue', u'black', u'red']","[u'left', u'middle', u'right']","[0.8, 0.4, 0.2]","[u'medium', u'high', u'low']","black",50,"middle","high","True","False",580,7550,NA
"A3ET6NWQH4NNDG","Sat Oct 03 2020 11:32:59 GMT-0600 (Mountain Daylight Time)","Sat Oct 03 2020 11:50:15 GMT-0600 (Mountain Daylight Time)","Mozilla/5.0 (Windows NT 6.3; Win64; x64) AppleWebKit/537.36 (KHTML, like Gecko) Chrome/85.0.4183.121 Safari/537.36",123,"[0.9, 0.5, 0.1]","[0.8, 0.4, 0.2]","[u'blue', u'black', u'red']","[u'left', u'middle', u'right']","[0.8, 0.4, 0.2]","[u'medium', u'high', u'low']","black",50,"middle","high","True","False",713,7650,NA
"A3ET6NWQH4NNDG","Sat Oct 03 2020 11:32:59 GMT-0600 (Mountain Daylight Time)","Sat Oct 03 2020 11:50:15 GMT-0600 (Mountain Daylight Time)","Mozilla/5.0 (Windows NT 6.3; Win64; x64) AppleWebKit/537.36 (KHTML, like Gecko) Chrome/85.0.4183.121 Safari/537.36",124,"[0.9, 0.5, 0.1]","[0.8, 0.4, 0.2]","[u'blue', u'black', u'red']","[u'left', u'middle', u'right']","[0.8, 0.4, 0.2]","[u'medium', u'high', u'low']","black",50,"middle","high","False","False",676,7600,NA
"A3ET6NWQH4NNDG","Sat Oct 03 2020 11:32:59 GMT-0600 (Mountain Daylight Time)","Sat Oct 03 2020 11:50:15 GMT-0600 (Mountain Daylight Time)","Mozilla/5.0 (Windows NT 6.3; Win64; x64) AppleWebKit/537.36 (KHTML, like Gecko) Chrome/85.0.4183.121 Safari/537.36",125,"[0.9, 0.5, 0.1]","[0.8, 0.4, 0.2]","[u'blue', u'black', u'red']","[u'left', u'middle', u'right']","[0.8, 0.4, 0.2]","[u'medium', u'high', u'low']","black",50,"middle","high","True","False",539,7700,NA
"A3ET6NWQH4NNDG","Sat Oct 03 2020 11:32:59 GMT-0600 (Mountain Daylight Time)","Sat Oct 03 2020 11:50:15 GMT-0600 (Mountain Daylight Time)","Mozilla/5.0 (Windows NT 6.3; Win64; x64) AppleWebKit/537.36 (KHTML, like Gecko) Chrome/85.0.4183.121 Safari/537.36",126,"[0.9, 0.5, 0.1]","[0.8, 0.4, 0.2]","[u'blue', u'black', u'red']","[u'left', u'middle', u'right']","[0.8, 0.4, 0.2]","[u'medium', u'high', u'low']","black",50,"middle","high","True","False",800,7800,NA
"A3ET6NWQH4NNDG","Sat Oct 03 2020 11:32:59 GMT-0600 (Mountain Daylight Time)","Sat Oct 03 2020 11:50:15 GMT-0600 (Mountain Daylight Time)","Mozilla/5.0 (Windows NT 6.3; Win64; x64) AppleWebKit/537.36 (KHTML, like Gecko) Chrome/85.0.4183.121 Safari/537.36",127,"[0.9, 0.5, 0.1]","[0.8, 0.4, 0.2]","[u'blue', u'black', u'red']","[u'left', u'middle', u'right']","[0.8, 0.4, 0.2]","[u'medium', u'high', u'low']","black",50,"middle","high","True","False",506,7900,NA
"A3ET6NWQH4NNDG","Sat Oct 03 2020 11:32:59 GMT-0600 (Mountain Daylight Time)","Sat Oct 03 2020 11:50:15 GMT-0600 (Mountain Daylight Time)","Mozilla/5.0 (Windows NT 6.3; Win64; x64) AppleWebKit/537.36 (KHTML, like Gecko) Chrome/85.0.4183.121 Safari/537.36",128,"[0.9, 0.5, 0.1]","[0.8, 0.4, 0.2]","[u'blue', u'black', u'red']","[u'left', u'middle', u'right']","[0.8, 0.4, 0.2]","[u'medium', u'high', u'low']","black",50,"middle","high","True","False",611,8000,NA
"A3ET6NWQH4NNDG","Sat Oct 03 2020 11:32:59 GMT-0600 (Mountain Daylight Time)","Sat Oct 03 2020 11:50:15 GMT-0600 (Mountain Daylight Time)","Mozilla/5.0 (Windows NT 6.3; Win64; x64) AppleWebKit/537.36 (KHTML, like Gecko) Chrome/85.0.4183.121 Safari/537.36",129,"[0.9, 0.5, 0.1]","[0.8, 0.4, 0.2]","[u'blue', u'black', u'red']","[u'left', u'middle', u'right']","[0.8, 0.4, 0.2]","[u'medium', u'high', u'low']","black",50,"middle","high","True","True",584,8100,NA
"A3ET6NWQH4NNDG","Sat Oct 03 2020 11:32:59 GMT-0600 (Mountain Daylight Time)","Sat Oct 03 2020 11:50:15 GMT-0600 (Mountain Daylight Time)","Mozilla/5.0 (Windows NT 6.3; Win64; x64) AppleWebKit/537.36 (KHTML, like Gecko) Chrome/85.0.4183.121 Safari/537.36",130,"[0.9, 0.5, 0.1]","[0.8, 0.4, 0.2]","[u'blue', u'black', u'red']","[u'left', u'middle', u'right']","[0.8, 0.4, 0.2]","[u'low', u'medium', u'high']","black",50,"middle","medium","True","False",720,8200,NA
"A3ET6NWQH4NNDG","Sat Oct 03 2020 11:32:59 GMT-0600 (Mountain Daylight Time)","Sat Oct 03 2020 11:50:15 GMT-0600 (Mountain Daylight Time)","Mozilla/5.0 (Windows NT 6.3; Win64; x64) AppleWebKit/537.36 (KHTML, like Gecko) Chrome/85.0.4183.121 Safari/537.36",131,"[0.9, 0.5, 0.1]","[0.8, 0.4, 0.2]","[u'blue', u'black', u'red']","[u'left', u'middle', u'right']","[0.8, 0.4, 0.2]","[u'low', u'medium', u'high']","black",50,"middle","medium","True","False",270,8300,NA
"A3ET6NWQH4NNDG","Sat Oct 03 2020 11:32:59 GMT-0600 (Mountain Daylight Time)","Sat Oct 03 2020 11:50:15 GMT-0600 (Mountain Daylight Time)","Mozilla/5.0 (Windows NT 6.3; Win64; x64) AppleWebKit/537.36 (KHTML, like Gecko) Chrome/85.0.4183.121 Safari/537.36",132,"[0.9, 0.5, 0.1]","[0.8, 0.4, 0.2]","[u'blue', u'black', u'red']","[u'left', u'middle', u'right']","[0.8, 0.4, 0.2]","[u'low', u'medium', u'high']","black",50,"middle","medium","False","False",642,8250,NA
"A3ET6NWQH4NNDG","Sat Oct 03 2020 11:32:59 GMT-0600 (Mountain Daylight Time)","Sat Oct 03 2020 11:50:15 GMT-0600 (Mountain Daylight Time)","Mozilla/5.0 (Windows NT 6.3; Win64; x64) AppleWebKit/537.36 (KHTML, like Gecko) Chrome/85.0.4183.121 Safari/537.36",133,"[0.9, 0.5, 0.1]","[0.8, 0.4, 0.2]","[u'blue', u'black', u'red']","[u'left', u'middle', u'right']","[0.8, 0.4, 0.2]","[u'low', u'medium', u'high']","black",50,"middle","medium","False","False",492,8200,NA
"A3ET6NWQH4NNDG","Sat Oct 03 2020 11:32:59 GMT-0600 (Mountain Daylight Time)","Sat Oct 03 2020 11:50:15 GMT-0600 (Mountain Daylight Time)","Mozilla/5.0 (Windows NT 6.3; Win64; x64) AppleWebKit/537.36 (KHTML, like Gecko) Chrome/85.0.4183.121 Safari/537.36",134,"[0.9, 0.5, 0.1]","[0.8, 0.4, 0.2]","[u'blue', u'black', u'red']","[u'left', u'middle', u'right']","[0.8, 0.4, 0.2]","[u'low', u'medium', u'high']","blue",49,"left","low","False","False",394,8150,NA
"A3ET6NWQH4NNDG","Sat Oct 03 2020 11:32:59 GMT-0600 (Mountain Daylight Time)","Sat Oct 03 2020 11:50:15 GMT-0600 (Mountain Daylight Time)","Mozilla/5.0 (Windows NT 6.3; Win64; x64) AppleWebKit/537.36 (KHTML, like Gecko) Chrome/85.0.4183.121 Safari/537.36",135,"[0.9, 0.5, 0.1]","[0.8, 0.4, 0.2]","[u'blue', u'black', u'red']","[u'left', u'middle', u'right']","[0.8, 0.4, 0.2]","[u'low', u'medium', u'high']","red",51,"right","high","False","False",169,8100,NA
"A3ET6NWQH4NNDG","Sat Oct 03 2020 11:32:59 GMT-0600 (Mountain Daylight Time)","Sat Oct 03 2020 11:50:15 GMT-0600 (Mountain Daylight Time)","Mozilla/5.0 (Windows NT 6.3; Win64; x64) AppleWebKit/537.36 (KHTML, like Gecko) Chrome/85.0.4183.121 Safari/537.36",136,"[0.9, 0.5, 0.1]","[0.8, 0.4, 0.2]","[u'blue', u'black', u'red']","[u'left', u'middle', u'right']","[0.8, 0.4, 0.2]","[u'low', u'medium', u'high']","black",50,"middle","medium","False","False",192,8050,NA
"A3ET6NWQH4NNDG","Sat Oct 03 2020 11:32:59 GMT-0600 (Mountain Daylight Time)","Sat Oct 03 2020 11:50:15 GMT-0600 (Mountain Daylight Time)","Mozilla/5.0 (Windows NT 6.3; Win64; x64) AppleWebKit/537.36 (KHTML, like Gecko) Chrome/85.0.4183.121 Safari/537.36",137,"[0.9, 0.5, 0.1]","[0.8, 0.4, 0.2]","[u'blue', u'black', u'red']","[u'left', u'middle', u'right']","[0.8, 0.4, 0.2]","[u'low', u'medium', u'high']","blue",49,"left","low","True","False",733,8150,NA
"A3ET6NWQH4NNDG","Sat Oct 03 2020 11:32:59 GMT-0600 (Mountain Daylight Time)","Sat Oct 03 2020 11:50:15 GMT-0600 (Mountain Daylight Time)","Mozilla/5.0 (Windows NT 6.3; Win64; x64) AppleWebKit/537.36 (KHTML, like Gecko) Chrome/85.0.4183.121 Safari/537.36",138,"[0.9, 0.5, 0.1]","[0.8, 0.4, 0.2]","[u'blue', u'black', u'red']","[u'left', u'middle', u'right']","[0.8, 0.4, 0.2]","[u'low', u'medium', u'high']","blue",49,"left","low","False","False",263,8100,NA
"A3ET6NWQH4NNDG","Sat Oct 03 2020 11:32:59 GMT-0600 (Mountain Daylight Time)","Sat Oct 03 2020 11:50:15 GMT-0600 (Mountain Daylight Time)","Mozilla/5.0 (Windows NT 6.3; Win64; x64) AppleWebKit/537.36 (KHTML, like Gecko) Chrome/85.0.4183.121 Safari/537.36",139,"[0.9, 0.5, 0.1]","[0.8, 0.4, 0.2]","[u'blue', u'black', u'red']","[u'left', u'middle', u'right']","[0.8, 0.4, 0.2]","[u'low', u'medium', u'high']","blue",49,"left","low","True","False",159,8200,NA
"A3ET6NWQH4NNDG","Sat Oct 03 2020 11:32:59 GMT-0600 (Mountain Daylight Time)","Sat Oct 03 2020 11:50:15 GMT-0600 (Mountain Daylight Time)","Mozilla/5.0 (Windows NT 6.3; Win64; x64) AppleWebKit/537.36 (KHTML, like Gecko) Chrome/85.0.4183.121 Safari/537.36",140,"[0.9, 0.5, 0.1]","[0.8, 0.4, 0.2]","[u'blue', u'black', u'red']","[u'left', u'middle', u'right']","[0.8, 0.4, 0.2]","[u'low', u'medium', u'high']","blue",49,"left","low","False","False",333,8150,NA
"A3ET6NWQH4NNDG","Sat Oct 03 2020 11:32:59 GMT-0600 (Mountain Daylight Time)","Sat Oct 03 2020 11:50:15 GMT-0600 (Mountain Daylight Time)","Mozilla/5.0 (Windows NT 6.3; Win64; x64) AppleWebKit/537.36 (KHTML, like Gecko) Chrome/85.0.4183.121 Safari/537.36",141,"[0.9, 0.5, 0.1]","[0.8, 0.4, 0.2]","[u'blue', u'black', u'red']","[u'left', u'middle', u'right']","[0.8, 0.4, 0.2]","[u'low', u'medium', u'high']","blue",49,"left","low","False","False",243,8100,NA
"A3ET6NWQH4NNDG","Sat Oct 03 2020 11:32:59 GMT-0600 (Mountain Daylight Time)","Sat Oct 03 2020 11:50:15 GMT-0600 (Mountain Daylight Time)","Mozilla/5.0 (Windows NT 6.3; Win64; x64) AppleWebKit/537.36 (KHTML, like Gecko) Chrome/85.0.4183.121 Safari/537.36",142,"[0.9, 0.5, 0.1]","[0.8, 0.4, 0.2]","[u'blue', u'black', u'red']","[u'left', u'middle', u'right']","[0.8, 0.4, 0.2]","[u'low', u'medium', u'high']","black",50,"middle","medium","True","False",697,8200,NA
"A3ET6NWQH4NNDG","Sat Oct 03 2020 11:32:59 GMT-0600 (Mountain Daylight Time)","Sat Oct 03 2020 11:50:15 GMT-0600 (Mountain Daylight Time)","Mozilla/5.0 (Windows NT 6.3; Win64; x64) AppleWebKit/537.36 (KHTML, like Gecko) Chrome/85.0.4183.121 Safari/537.36",143,"[0.9, 0.5, 0.1]","[0.8, 0.4, 0.2]","[u'blue', u'black', u'red']","[u'left', u'middle', u'right']","[0.8, 0.4, 0.2]","[u'low', u'medium', u'high']","black",50,"middle","medium","True","False",457,8300,NA
"A3ET6NWQH4NNDG","Sat Oct 03 2020 11:32:59 GMT-0600 (Mountain Daylight Time)","Sat Oct 03 2020 11:50:15 GMT-0600 (Mountain Daylight Time)","Mozilla/5.0 (Windows NT 6.3; Win64; x64) AppleWebKit/537.36 (KHTML, like Gecko) Chrome/85.0.4183.121 Safari/537.36",144,"[0.9, 0.5, 0.1]","[0.8, 0.4, 0.2]","[u'blue', u'black', u'red']","[u'left', u'middle', u'right']","[0.8, 0.4, 0.2]","[u'low', u'medium', u'high']","black",50,"middle","medium","False","False",535,8250,NA
"A3ET6NWQH4NNDG","Sat Oct 03 2020 11:32:59 GMT-0600 (Mountain Daylight Time)","Sat Oct 03 2020 11:50:15 GMT-0600 (Mountain Daylight Time)","Mozilla/5.0 (Windows NT 6.3; Win64; x64) AppleWebKit/537.36 (KHTML, like Gecko) Chrome/85.0.4183.121 Safari/537.36",145,"[0.9, 0.5, 0.1]","[0.8, 0.4, 0.2]","[u'blue', u'black', u'red']","[u'left', u'middle', u'right']","[0.8, 0.4, 0.2]","[u'low', u'medium', u'high']","black",50,"middle","medium","False","False",546,8200,NA
"A3ET6NWQH4NNDG","Sat Oct 03 2020 11:32:59 GMT-0600 (Mountain Daylight Time)","Sat Oct 03 2020 11:50:15 GMT-0600 (Mountain Daylight Time)","Mozilla/5.0 (Windows NT 6.3; Win64; x64) AppleWebKit/537.36 (KHTML, like Gecko) Chrome/85.0.4183.121 Safari/537.36",146,"[0.9, 0.5, 0.1]","[0.8, 0.4, 0.2]","[u'blue', u'black', u'red']","[u'left', u'middle', u'right']","[0.8, 0.4, 0.2]","[u'low', u'medium', u'high']","red",51,"right","high","True","False",0,8300,NA
"A3ET6NWQH4NNDG","Sat Oct 03 2020 11:32:59 GMT-0600 (Mountain Daylight Time)","Sat Oct 03 2020 11:50:15 GMT-0600 (Mountain Daylight Time)","Mozilla/5.0 (Windows NT 6.3; Win64; x64) AppleWebKit/537.36 (KHTML, like Gecko) Chrome/85.0.4183.121 Safari/537.36",147,"[0.9, 0.5, 0.1]","[0.8, 0.4, 0.2]","[u'blue', u'black', u'red']","[u'left', u'middle', u'right']","[0.8, 0.4, 0.2]","[u'low', u'medium', u'high']","red",51,"right","high","True","False",341,8400,NA
"A3ET6NWQH4NNDG","Sat Oct 03 2020 11:32:59 GMT-0600 (Mountain Daylight Time)","Sat Oct 03 2020 11:50:15 GMT-0600 (Mountain Daylight Time)","Mozilla/5.0 (Windows NT 6.3; Win64; x64) AppleWebKit/537.36 (KHTML, like Gecko) Chrome/85.0.4183.121 Safari/537.36",148,"[0.9, 0.5, 0.1]","[0.8, 0.4, 0.2]","[u'blue', u'black', u'red']","[u'left', u'middle', u'right']","[0.8, 0.4, 0.2]","[u'low', u'medium', u'high']","red",51,"right","high","False","False",217,8350,NA
"A3ET6NWQH4NNDG","Sat Oct 03 2020 11:32:59 GMT-0600 (Mountain Daylight Time)","Sat Oct 03 2020 11:50:15 GMT-0600 (Mountain Daylight Time)","Mozilla/5.0 (Windows NT 6.3; Win64; x64) AppleWebKit/537.36 (KHTML, like Gecko) Chrome/85.0.4183.121 Safari/537.36",149,"[0.9, 0.5, 0.1]","[0.8, 0.4, 0.2]","[u'blue', u'black', u'red']","[u'left', u'middle', u'right']","[0.8, 0.4, 0.2]","[u'low', u'medium', u'high']","blue",49,"left","low","False","False",397,8300,NA
"A3ET6NWQH4NNDG","Sat Oct 03 2020 11:32:59 GMT-0600 (Mountain Daylight Time)","Sat Oct 03 2020 11:50:15 GMT-0600 (Mountain Daylight Time)","Mozilla/5.0 (Windows NT 6.3; Win64; x64) AppleWebKit/537.36 (KHTML, like Gecko) Chrome/85.0.4183.121 Safari/537.36",150,"[0.9, 0.5, 0.1]","[0.8, 0.4, 0.2]","[u'blue', u'black', u'red']","[u'left', u'middle', u'right']","[0.8, 0.4, 0.2]","[u'low', u'medium', u'high']","black",50,"middle","medium","False","False",822,8250,NA
"A3ET6NWQH4NNDG","Sat Oct 03 2020 11:32:59 GMT-0600 (Mountain Daylight Time)","Sat Oct 03 2020 11:50:15 GMT-0600 (Mountain Daylight Time)","Mozilla/5.0 (Windows NT 6.3; Win64; x64) AppleWebKit/537.36 (KHTML, like Gecko) Chrome/85.0.4183.121 Safari/537.36",151,"[0.9, 0.5, 0.1]","[0.8, 0.4, 0.2]","[u'blue', u'black', u'red']","[u'left', u'middle', u'right']","[0.8, 0.4, 0.2]","[u'low', u'medium', u'high']","red",51,"right","high","True","False",93,8350,NA
"A3ET6NWQH4NNDG","Sat Oct 03 2020 11:32:59 GMT-0600 (Mountain Daylight Time)","Sat Oct 03 2020 11:50:15 GMT-0600 (Mountain Daylight Time)","Mozilla/5.0 (Windows NT 6.3; Win64; x64) AppleWebKit/537.36 (KHTML, like Gecko) Chrome/85.0.4183.121 Safari/537.36",152,"[0.9, 0.5, 0.1]","[0.8, 0.4, 0.2]","[u'blue', u'black', u'red']","[u'left', u'middle', u'right']","[0.8, 0.4, 0.2]","[u'low', u'medium', u'high']","red",51,"right","high","True","False",428,8450,NA
"A3ET6NWQH4NNDG","Sat Oct 03 2020 11:32:59 GMT-0600 (Mountain Daylight Time)","Sat Oct 03 2020 11:50:15 GMT-0600 (Mountain Daylight Time)","Mozilla/5.0 (Windows NT 6.3; Win64; x64) AppleWebKit/537.36 (KHTML, like Gecko) Chrome/85.0.4183.121 Safari/537.36",153,"[0.9, 0.5, 0.1]","[0.8, 0.4, 0.2]","[u'blue', u'black', u'red']","[u'left', u'middle', u'right']","[0.8, 0.4, 0.2]","[u'low', u'medium', u'high']","red",51,"right","high","True","False",344,8550,NA
"A3ET6NWQH4NNDG","Sat Oct 03 2020 11:32:59 GMT-0600 (Mountain Daylight Time)","Sat Oct 03 2020 11:50:15 GMT-0600 (Mountain Daylight Time)","Mozilla/5.0 (Windows NT 6.3; Win64; x64) AppleWebKit/537.36 (KHTML, like Gecko) Chrome/85.0.4183.121 Safari/537.36",154,"[0.9, 0.5, 0.1]","[0.8, 0.4, 0.2]","[u'blue', u'black', u'red']","[u'left', u'middle', u'right']","[0.8, 0.4, 0.2]","[u'low', u'medium', u'high']","red",51,"right","high","False","False",341,8500,NA
"A3ET6NWQH4NNDG","Sat Oct 03 2020 11:32:59 GMT-0600 (Mountain Daylight Time)","Sat Oct 03 2020 11:50:15 GMT-0600 (Mountain Daylight Time)","Mozilla/5.0 (Windows NT 6.3; Win64; x64) AppleWebKit/537.36 (KHTML, like Gecko) Chrome/85.0.4183.121 Safari/537.36",155,"[0.9, 0.5, 0.1]","[0.8, 0.4, 0.2]","[u'blue', u'black', u'red']","[u'left', u'middle', u'right']","[0.8, 0.4, 0.2]","[u'low', u'medium', u'high']","red",51,"right","high","True","False",234,8600,NA
"A3ET6NWQH4NNDG","Sat Oct 03 2020 11:32:59 GMT-0600 (Mountain Daylight Time)","Sat Oct 03 2020 11:50:15 GMT-0600 (Mountain Daylight Time)","Mozilla/5.0 (Windows NT 6.3; Win64; x64) AppleWebKit/537.36 (KHTML, like Gecko) Chrome/85.0.4183.121 Safari/537.36",156,"[0.9, 0.5, 0.1]","[0.8, 0.4, 0.2]","[u'blue', u'black', u'red']","[u'left', u'middle', u'right']","[0.8, 0.4, 0.2]","[u'low', u'medium', u'high']","red",51,"right","high","True","False",266,8700,NA
"A3ET6NWQH4NNDG","Sat Oct 03 2020 11:32:59 GMT-0600 (Mountain Daylight Time)","Sat Oct 03 2020 11:50:15 GMT-0600 (Mountain Daylight Time)","Mozilla/5.0 (Windows NT 6.3; Win64; x64) AppleWebKit/537.36 (KHTML, like Gecko) Chrome/85.0.4183.121 Safari/537.36",157,"[0.9, 0.5, 0.1]","[0.8, 0.4, 0.2]","[u'blue', u'black', u'red']","[u'left', u'middle', u'right']","[0.8, 0.4, 0.2]","[u'low', u'medium', u'high']","red",51,"right","high","True","False",275,8800,NA
"A3ET6NWQH4NNDG","Sat Oct 03 2020 11:32:59 GMT-0600 (Mountain Daylight Time)","Sat Oct 03 2020 11:50:15 GMT-0600 (Mountain Daylight Time)","Mozilla/5.0 (Windows NT 6.3; Win64; x64) AppleWebKit/537.36 (KHTML, like Gecko) Chrome/85.0.4183.121 Safari/537.36",158,"[0.9, 0.5, 0.1]","[0.8, 0.4, 0.2]","[u'blue', u'black', u'red']","[u'left', u'middle', u'right']","[0.8, 0.4, 0.2]","[u'low', u'medium', u'high']","red",51,"right","high","True","False",347,8900,NA
"A3ET6NWQH4NNDG","Sat Oct 03 2020 11:32:59 GMT-0600 (Mountain Daylight Time)","Sat Oct 03 2020 11:50:15 GMT-0600 (Mountain Daylight Time)","Mozilla/5.0 (Windows NT 6.3; Win64; x64) AppleWebKit/537.36 (KHTML, like Gecko) Chrome/85.0.4183.121 Safari/537.36",159,"[0.9, 0.5, 0.1]","[0.8, 0.4, 0.2]","[u'blue', u'black', u'red']","[u'left', u'middle', u'right']","[0.8, 0.4, 0.2]","[u'low', u'medium', u'high']","red",51,"right","high","False","True",422,8850,NA
"A3ET6NWQH4NNDG","Sat Oct 03 2020 11:32:59 GMT-0600 (Mountain Daylight Time)","Sat Oct 03 2020 11:50:15 GMT-0600 (Mountain Daylight Time)","Mozilla/5.0 (Windows NT 6.3; Win64; x64) AppleWebKit/537.36 (KHTML, like Gecko) Chrome/85.0.4183.121 Safari/537.36",160,"[0.9, 0.5, 0.1]","[0.8, 0.4, 0.2]","[u'blue', u'black', u'red']","[u'left', u'middle', u'right']","[0.8, 0.4, 0.2]","[u'high', u'medium', u'low']","red",51,"right","low","False","False",363,8800,NA
