"src_subject_id","start_time","end_time","browser","index","first_half_probabilities","second_half_probabilities","deck_color","deck_position","deck_probabilities","deck_contingencies","response_color","key_press","response_position","response_probability","reward_type","trial_type","rt","reward_tally","exclusion_reason"
"A1NR3COO33J99C","Sat Oct 03 2020 11:16:57 GMT-0400 (Eastern Daylight Time)","Sat Oct 03 2020 11:35:45 GMT-0400 (Eastern Daylight Time)","Mozilla/5.0 (X11; CrOS aarch64 13310.93.0) AppleWebKit/537.36 (KHTML, like Gecko) Chrome/85.0.4183.133 Safari/537.36",1,"[0.9, 0.5, 0.1]","[0.8, 0.4, 0.2]","[u'black', u'red', u'blue']","[u'left', u'middle', u'right']","[0.9, 0.5, 0.1]","[u'low', u'high', u'medium']","red",50,"middle","high","True","False",1181,100,NA
"A1NR3COO33J99C","Sat Oct 03 2020 11:16:57 GMT-0400 (Eastern Daylight Time)","Sat Oct 03 2020 11:35:45 GMT-0400 (Eastern Daylight Time)","Mozilla/5.0 (X11; CrOS aarch64 13310.93.0) AppleWebKit/537.36 (KHTML, like Gecko) Chrome/85.0.4183.133 Safari/537.36",2,"[0.9, 0.5, 0.1]","[0.8, 0.4, 0.2]","[u'black', u'red', u'blue']","[u'left', u'middle', u'right']","[0.9, 0.5, 0.1]","[u'low', u'high', u'medium']","black",49,"left","low","False","False",99,50,NA
"A1NR3COO33J99C","Sat Oct 03 2020 11:16:57 GMT-0400 (Eastern Daylight Time)","Sat Oct 03 2020 11:35:45 GMT-0400 (Eastern Daylight Time)","Mozilla/5.0 (X11; CrOS aarch64 13310.93.0) AppleWebKit/537.36 (KHTML, like Gecko) Chrome/85.0.4183.133 Safari/537.36",3,"[0.9, 0.5, 0.1]","[0.8, 0.4, 0.2]","[u'black', u'red', u'blue']","[u'left', u'middle', u'right']","[0.9, 0.5, 0.1]","[u'low', u'high', u'medium']","blue",51,"right","medium","True","False",293,150,NA
"A1NR3COO33J99C","Sat Oct 03 2020 11:16:57 GMT-0400 (Eastern Daylight Time)","Sat Oct 03 2020 11:35:45 GMT-0400 (Eastern Daylight Time)","Mozilla/5.0 (X11; CrOS aarch64 13310.93.0) AppleWebKit/537.36 (KHTML, like Gecko) Chrome/85.0.4183.133 Safari/537.36",4,"[0.9, 0.5, 0.1]","[0.8, 0.4, 0.2]","[u'black', u'red', u'blue']","[u'left', u'middle', u'right']","[0.9, 0.5, 0.1]","[u'low', u'high', u'medium']","red",50,"middle","high","True","False",414,250,NA
"A1NR3COO33J99C","Sat Oct 03 2020 11:16:57 GMT-0400 (Eastern Daylight Time)","Sat Oct 03 2020 11:35:45 GMT-0400 (Eastern Daylight Time)","Mozilla/5.0 (X11; CrOS aarch64 13310.93.0) AppleWebKit/537.36 (KHTML, like Gecko) Chrome/85.0.4183.133 Safari/537.36",5,"[0.9, 0.5, 0.1]","[0.8, 0.4, 0.2]","[u'black', u'red', u'blue']","[u'left', u'middle', u'right']","[0.9, 0.5, 0.1]","[u'low', u'high', u'medium']","blue",51,"right","medium","True","False",306,350,NA
"A1NR3COO33J99C","Sat Oct 03 2020 11:16:57 GMT-0400 (Eastern Daylight Time)","Sat Oct 03 2020 11:35:45 GMT-0400 (Eastern Daylight Time)","Mozilla/5.0 (X11; CrOS aarch64 13310.93.0) AppleWebKit/537.36 (KHTML, like Gecko) Chrome/85.0.4183.133 Safari/537.36",6,"[0.9, 0.5, 0.1]","[0.8, 0.4, 0.2]","[u'black', u'red', u'blue']","[u'left', u'middle', u'right']","[0.9, 0.5, 0.1]","[u'low', u'high', u'medium']","red",50,"middle","high","True","False",143,450,NA
"A1NR3COO33J99C","Sat Oct 03 2020 11:16:57 GMT-0400 (Eastern Daylight Time)","Sat Oct 03 2020 11:35:45 GMT-0400 (Eastern Daylight Time)","Mozilla/5.0 (X11; CrOS aarch64 13310.93.0) AppleWebKit/537.36 (KHTML, like Gecko) Chrome/85.0.4183.133 Safari/537.36",7,"[0.9, 0.5, 0.1]","[0.8, 0.4, 0.2]","[u'black', u'red', u'blue']","[u'left', u'middle', u'right']","[0.9, 0.5, 0.1]","[u'low', u'high', u'medium']","red",50,"middle","high","False","False",457,400,NA
"A1NR3COO33J99C","Sat Oct 03 2020 11:16:57 GMT-0400 (Eastern Daylight Time)","Sat Oct 03 2020 11:35:45 GMT-0400 (Eastern Daylight Time)","Mozilla/5.0 (X11; CrOS aarch64 13310.93.0) AppleWebKit/537.36 (KHTML, like Gecko) Chrome/85.0.4183.133 Safari/537.36",8,"[0.9, 0.5, 0.1]","[0.8, 0.4, 0.2]","[u'black', u'red', u'blue']","[u'left', u'middle', u'right']","[0.9, 0.5, 0.1]","[u'low', u'high', u'medium']","blue",51,"right","medium","False","False",364,350,NA
"A1NR3COO33J99C","Sat Oct 03 2020 11:16:57 GMT-0400 (Eastern Daylight Time)","Sat Oct 03 2020 11:35:45 GMT-0400 (Eastern Daylight Time)","Mozilla/5.0 (X11; CrOS aarch64 13310.93.0) AppleWebKit/537.36 (KHTML, like Gecko) Chrome/85.0.4183.133 Safari/537.36",9,"[0.9, 0.5, 0.1]","[0.8, 0.4, 0.2]","[u'black', u'red', u'blue']","[u'left', u'middle', u'right']","[0.9, 0.5, 0.1]","[u'low', u'high', u'medium']","blue",51,"right","medium","False","False",355,300,NA
"A1NR3COO33J99C","Sat Oct 03 2020 11:16:57 GMT-0400 (Eastern Daylight Time)","Sat Oct 03 2020 11:35:45 GMT-0400 (Eastern Daylight Time)","Mozilla/5.0 (X11; CrOS aarch64 13310.93.0) AppleWebKit/537.36 (KHTML, like Gecko) Chrome/85.0.4183.133 Safari/537.36",10,"[0.9, 0.5, 0.1]","[0.8, 0.4, 0.2]","[u'black', u'red', u'blue']","[u'left', u'middle', u'right']","[0.9, 0.5, 0.1]","[u'low', u'high', u'medium']","black",49,"left","low","False","False",248,250,NA
"A1NR3COO33J99C","Sat Oct 03 2020 11:16:57 GMT-0400 (Eastern Daylight Time)","Sat Oct 03 2020 11:35:45 GMT-0400 (Eastern Daylight Time)","Mozilla/5.0 (X11; CrOS aarch64 13310.93.0) AppleWebKit/537.36 (KHTML, like Gecko) Chrome/85.0.4183.133 Safari/537.36",11,"[0.9, 0.5, 0.1]","[0.8, 0.4, 0.2]","[u'black', u'red', u'blue']","[u'left', u'middle', u'right']","[0.9, 0.5, 0.1]","[u'low', u'high', u'medium']","red",50,"middle","high","True","False",257,350,NA
"A1NR3COO33J99C","Sat Oct 03 2020 11:16:57 GMT-0400 (Eastern Daylight Time)","Sat Oct 03 2020 11:35:45 GMT-0400 (Eastern Daylight Time)","Mozilla/5.0 (X11; CrOS aarch64 13310.93.0) AppleWebKit/537.36 (KHTML, like Gecko) Chrome/85.0.4183.133 Safari/537.36",12,"[0.9, 0.5, 0.1]","[0.8, 0.4, 0.2]","[u'black', u'red', u'blue']","[u'left', u'middle', u'right']","[0.9, 0.5, 0.1]","[u'low', u'high', u'medium']","red",50,"middle","high","True","False",274,450,NA
"A1NR3COO33J99C","Sat Oct 03 2020 11:16:57 GMT-0400 (Eastern Daylight Time)","Sat Oct 03 2020 11:35:45 GMT-0400 (Eastern Daylight Time)","Mozilla/5.0 (X11; CrOS aarch64 13310.93.0) AppleWebKit/537.36 (KHTML, like Gecko) Chrome/85.0.4183.133 Safari/537.36",13,"[0.9, 0.5, 0.1]","[0.8, 0.4, 0.2]","[u'black', u'red', u'blue']","[u'left', u'middle', u'right']","[0.9, 0.5, 0.1]","[u'low', u'high', u'medium']","black",49,"left","low","True","False",645,550,NA
"A1NR3COO33J99C","Sat Oct 03 2020 11:16:57 GMT-0400 (Eastern Daylight Time)","Sat Oct 03 2020 11:35:45 GMT-0400 (Eastern Daylight Time)","Mozilla/5.0 (X11; CrOS aarch64 13310.93.0) AppleWebKit/537.36 (KHTML, like Gecko) Chrome/85.0.4183.133 Safari/537.36",14,"[0.9, 0.5, 0.1]","[0.8, 0.4, 0.2]","[u'black', u'red', u'blue']","[u'left', u'middle', u'right']","[0.9, 0.5, 0.1]","[u'low', u'high', u'medium']","black",49,"left","low","False","False",350,500,NA
"A1NR3COO33J99C","Sat Oct 03 2020 11:16:57 GMT-0400 (Eastern Daylight Time)","Sat Oct 03 2020 11:35:45 GMT-0400 (Eastern Daylight Time)","Mozilla/5.0 (X11; CrOS aarch64 13310.93.0) AppleWebKit/537.36 (KHTML, like Gecko) Chrome/85.0.4183.133 Safari/537.36",15,"[0.9, 0.5, 0.1]","[0.8, 0.4, 0.2]","[u'black', u'red', u'blue']","[u'left', u'middle', u'right']","[0.9, 0.5, 0.1]","[u'low', u'high', u'medium']","red",50,"middle","high","True","False",291,600,NA
"A1NR3COO33J99C","Sat Oct 03 2020 11:16:57 GMT-0400 (Eastern Daylight Time)","Sat Oct 03 2020 11:35:45 GMT-0400 (Eastern Daylight Time)","Mozilla/5.0 (X11; CrOS aarch64 13310.93.0) AppleWebKit/537.36 (KHTML, like Gecko) Chrome/85.0.4183.133 Safari/537.36",16,"[0.9, 0.5, 0.1]","[0.8, 0.4, 0.2]","[u'black', u'red', u'blue']","[u'left', u'middle', u'right']","[0.9, 0.5, 0.1]","[u'low', u'high', u'medium']","red",50,"middle","high","True","False",388,700,NA
"A1NR3COO33J99C","Sat Oct 03 2020 11:16:57 GMT-0400 (Eastern Daylight Time)","Sat Oct 03 2020 11:35:45 GMT-0400 (Eastern Daylight Time)","Mozilla/5.0 (X11; CrOS aarch64 13310.93.0) AppleWebKit/537.36 (KHTML, like Gecko) Chrome/85.0.4183.133 Safari/537.36",17,"[0.9, 0.5, 0.1]","[0.8, 0.4, 0.2]","[u'black', u'red', u'blue']","[u'left', u'middle', u'right']","[0.9, 0.5, 0.1]","[u'low', u'high', u'medium']","blue",51,"right","medium","True","False",352,800,NA
"A1NR3COO33J99C","Sat Oct 03 2020 11:16:57 GMT-0400 (Eastern Daylight Time)","Sat Oct 03 2020 11:35:45 GMT-0400 (Eastern Daylight Time)","Mozilla/5.0 (X11; CrOS aarch64 13310.93.0) AppleWebKit/537.36 (KHTML, like Gecko) Chrome/85.0.4183.133 Safari/537.36",18,"[0.9, 0.5, 0.1]","[0.8, 0.4, 0.2]","[u'black', u'red', u'blue']","[u'left', u'middle', u'right']","[0.9, 0.5, 0.1]","[u'low', u'high', u'medium']","blue",51,"right","medium","True","False",66,900,NA
"A1NR3COO33J99C","Sat Oct 03 2020 11:16:57 GMT-0400 (Eastern Daylight Time)","Sat Oct 03 2020 11:35:45 GMT-0400 (Eastern Daylight Time)","Mozilla/5.0 (X11; CrOS aarch64 13310.93.0) AppleWebKit/537.36 (KHTML, like Gecko) Chrome/85.0.4183.133 Safari/537.36",19,"[0.9, 0.5, 0.1]","[0.8, 0.4, 0.2]","[u'black', u'red', u'blue']","[u'left', u'middle', u'right']","[0.9, 0.5, 0.1]","[u'low', u'high', u'medium']","red",50,"middle","high","True","False",347,1000,NA
"A1NR3COO33J99C","Sat Oct 03 2020 11:16:57 GMT-0400 (Eastern Daylight Time)","Sat Oct 03 2020 11:35:45 GMT-0400 (Eastern Daylight Time)","Mozilla/5.0 (X11; CrOS aarch64 13310.93.0) AppleWebKit/537.36 (KHTML, like Gecko) Chrome/85.0.4183.133 Safari/537.36",20,"[0.9, 0.5, 0.1]","[0.8, 0.4, 0.2]","[u'black', u'red', u'blue']","[u'left', u'middle', u'right']","[0.9, 0.5, 0.1]","[u'low', u'high', u'medium']","red",50,"middle","high","True","False",650,1100,NA
"A1NR3COO33J99C","Sat Oct 03 2020 11:16:57 GMT-0400 (Eastern Daylight Time)","Sat Oct 03 2020 11:35:45 GMT-0400 (Eastern Daylight Time)","Mozilla/5.0 (X11; CrOS aarch64 13310.93.0) AppleWebKit/537.36 (KHTML, like Gecko) Chrome/85.0.4183.133 Safari/537.36",21,"[0.9, 0.5, 0.1]","[0.8, 0.4, 0.2]","[u'black', u'red', u'blue']","[u'left', u'middle', u'right']","[0.9, 0.5, 0.1]","[u'low', u'high', u'medium']","black",49,"left","low","False","False",340,1050,NA
"A1NR3COO33J99C","Sat Oct 03 2020 11:16:57 GMT-0400 (Eastern Daylight Time)","Sat Oct 03 2020 11:35:45 GMT-0400 (Eastern Daylight Time)","Mozilla/5.0 (X11; CrOS aarch64 13310.93.0) AppleWebKit/537.36 (KHTML, like Gecko) Chrome/85.0.4183.133 Safari/537.36",22,"[0.9, 0.5, 0.1]","[0.8, 0.4, 0.2]","[u'black', u'red', u'blue']","[u'left', u'middle', u'right']","[0.9, 0.5, 0.1]","[u'low', u'high', u'medium']","red",50,"middle","high","True","False",246,1150,NA
"A1NR3COO33J99C","Sat Oct 03 2020 11:16:57 GMT-0400 (Eastern Daylight Time)","Sat Oct 03 2020 11:35:45 GMT-0400 (Eastern Daylight Time)","Mozilla/5.0 (X11; CrOS aarch64 13310.93.0) AppleWebKit/537.36 (KHTML, like Gecko) Chrome/85.0.4183.133 Safari/537.36",23,"[0.9, 0.5, 0.1]","[0.8, 0.4, 0.2]","[u'black', u'red', u'blue']","[u'left', u'middle', u'right']","[0.9, 0.5, 0.1]","[u'low', u'high', u'medium']","blue",51,"right","medium","False","False",383,1100,NA
"A1NR3COO33J99C","Sat Oct 03 2020 11:16:57 GMT-0400 (Eastern Daylight Time)","Sat Oct 03 2020 11:35:45 GMT-0400 (Eastern Daylight Time)","Mozilla/5.0 (X11; CrOS aarch64 13310.93.0) AppleWebKit/537.36 (KHTML, like Gecko) Chrome/85.0.4183.133 Safari/537.36",24,"[0.9, 0.5, 0.1]","[0.8, 0.4, 0.2]","[u'black', u'red', u'blue']","[u'left', u'middle', u'right']","[0.9, 0.5, 0.1]","[u'low', u'high', u'medium']","red",50,"middle","high","False","False",333,1050,NA
"A1NR3COO33J99C","Sat Oct 03 2020 11:16:57 GMT-0400 (Eastern Daylight Time)","Sat Oct 03 2020 11:35:45 GMT-0400 (Eastern Daylight Time)","Mozilla/5.0 (X11; CrOS aarch64 13310.93.0) AppleWebKit/537.36 (KHTML, like Gecko) Chrome/85.0.4183.133 Safari/537.36",25,"[0.9, 0.5, 0.1]","[0.8, 0.4, 0.2]","[u'black', u'red', u'blue']","[u'left', u'middle', u'right']","[0.9, 0.5, 0.1]","[u'low', u'high', u'medium']","black",49,"left","low","False","False",690,1000,NA
"A1NR3COO33J99C","Sat Oct 03 2020 11:16:57 GMT-0400 (Eastern Daylight Time)","Sat Oct 03 2020 11:35:45 GMT-0400 (Eastern Daylight Time)","Mozilla/5.0 (X11; CrOS aarch64 13310.93.0) AppleWebKit/537.36 (KHTML, like Gecko) Chrome/85.0.4183.133 Safari/537.36",26,"[0.9, 0.5, 0.1]","[0.8, 0.4, 0.2]","[u'black', u'red', u'blue']","[u'left', u'middle', u'right']","[0.9, 0.5, 0.1]","[u'low', u'high', u'medium']","red",50,"middle","high","True","False",328,1100,NA
"A1NR3COO33J99C","Sat Oct 03 2020 11:16:57 GMT-0400 (Eastern Daylight Time)","Sat Oct 03 2020 11:35:45 GMT-0400 (Eastern Daylight Time)","Mozilla/5.0 (X11; CrOS aarch64 13310.93.0) AppleWebKit/537.36 (KHTML, like Gecko) Chrome/85.0.4183.133 Safari/537.36",27,"[0.9, 0.5, 0.1]","[0.8, 0.4, 0.2]","[u'black', u'red', u'blue']","[u'left', u'middle', u'right']","[0.9, 0.5, 0.1]","[u'low', u'high', u'medium']","red",50,"middle","high","True","False",420,1200,NA
"A1NR3COO33J99C","Sat Oct 03 2020 11:16:57 GMT-0400 (Eastern Daylight Time)","Sat Oct 03 2020 11:35:45 GMT-0400 (Eastern Daylight Time)","Mozilla/5.0 (X11; CrOS aarch64 13310.93.0) AppleWebKit/537.36 (KHTML, like Gecko) Chrome/85.0.4183.133 Safari/537.36",28,"[0.9, 0.5, 0.1]","[0.8, 0.4, 0.2]","[u'black', u'red', u'blue']","[u'left', u'middle', u'right']","[0.9, 0.5, 0.1]","[u'low', u'high', u'medium']","red",50,"middle","high","True","False",538,1300,NA
"A1NR3COO33J99C","Sat Oct 03 2020 11:16:57 GMT-0400 (Eastern Daylight Time)","Sat Oct 03 2020 11:35:45 GMT-0400 (Eastern Daylight Time)","Mozilla/5.0 (X11; CrOS aarch64 13310.93.0) AppleWebKit/537.36 (KHTML, like Gecko) Chrome/85.0.4183.133 Safari/537.36",29,"[0.9, 0.5, 0.1]","[0.8, 0.4, 0.2]","[u'black', u'red', u'blue']","[u'left', u'middle', u'right']","[0.9, 0.5, 0.1]","[u'low', u'high', u'medium']","blue",51,"right","medium","True","False",299,1400,NA
"A1NR3COO33J99C","Sat Oct 03 2020 11:16:57 GMT-0400 (Eastern Daylight Time)","Sat Oct 03 2020 11:35:45 GMT-0400 (Eastern Daylight Time)","Mozilla/5.0 (X11; CrOS aarch64 13310.93.0) AppleWebKit/537.36 (KHTML, like Gecko) Chrome/85.0.4183.133 Safari/537.36",30,"[0.9, 0.5, 0.1]","[0.8, 0.4, 0.2]","[u'black', u'red', u'blue']","[u'left', u'middle', u'right']","[0.9, 0.5, 0.1]","[u'low', u'high', u'medium']","blue",51,"right","medium","False","False",350,1350,NA
"A1NR3COO33J99C","Sat Oct 03 2020 11:16:57 GMT-0400 (Eastern Daylight Time)","Sat Oct 03 2020 11:35:45 GMT-0400 (Eastern Daylight Time)","Mozilla/5.0 (X11; CrOS aarch64 13310.93.0) AppleWebKit/537.36 (KHTML, like Gecko) Chrome/85.0.4183.133 Safari/537.36",31,"[0.9, 0.5, 0.1]","[0.8, 0.4, 0.2]","[u'black', u'red', u'blue']","[u'left', u'middle', u'right']","[0.9, 0.5, 0.1]","[u'low', u'high', u'medium']","black",49,"left","low","False","False",286,1300,NA
"A1NR3COO33J99C","Sat Oct 03 2020 11:16:57 GMT-0400 (Eastern Daylight Time)","Sat Oct 03 2020 11:35:45 GMT-0400 (Eastern Daylight Time)","Mozilla/5.0 (X11; CrOS aarch64 13310.93.0) AppleWebKit/537.36 (KHTML, like Gecko) Chrome/85.0.4183.133 Safari/537.36",32,"[0.9, 0.5, 0.1]","[0.8, 0.4, 0.2]","[u'black', u'red', u'blue']","[u'left', u'middle', u'right']","[0.9, 0.5, 0.1]","[u'low', u'high', u'medium']","red",50,"middle","high","True","False",397,1400,NA
"A1NR3COO33J99C","Sat Oct 03 2020 11:16:57 GMT-0400 (Eastern Daylight Time)","Sat Oct 03 2020 11:35:45 GMT-0400 (Eastern Daylight Time)","Mozilla/5.0 (X11; CrOS aarch64 13310.93.0) AppleWebKit/537.36 (KHTML, like Gecko) Chrome/85.0.4183.133 Safari/537.36",33,"[0.9, 0.5, 0.1]","[0.8, 0.4, 0.2]","[u'black', u'red', u'blue']","[u'left', u'middle', u'right']","[0.9, 0.5, 0.1]","[u'low', u'high', u'medium']","blue",51,"right","medium","True","False",415,1500,NA
"A1NR3COO33J99C","Sat Oct 03 2020 11:16:57 GMT-0400 (Eastern Daylight Time)","Sat Oct 03 2020 11:35:45 GMT-0400 (Eastern Daylight Time)","Mozilla/5.0 (X11; CrOS aarch64 13310.93.0) AppleWebKit/537.36 (KHTML, like Gecko) Chrome/85.0.4183.133 Safari/537.36",34,"[0.9, 0.5, 0.1]","[0.8, 0.4, 0.2]","[u'black', u'red', u'blue']","[u'left', u'middle', u'right']","[0.9, 0.5, 0.1]","[u'low', u'high', u'medium']","black",49,"left","low","False","False",341,1450,NA
"A1NR3COO33J99C","Sat Oct 03 2020 11:16:57 GMT-0400 (Eastern Daylight Time)","Sat Oct 03 2020 11:35:45 GMT-0400 (Eastern Daylight Time)","Mozilla/5.0 (X11; CrOS aarch64 13310.93.0) AppleWebKit/537.36 (KHTML, like Gecko) Chrome/85.0.4183.133 Safari/537.36",35,"[0.9, 0.5, 0.1]","[0.8, 0.4, 0.2]","[u'black', u'red', u'blue']","[u'left', u'middle', u'right']","[0.9, 0.5, 0.1]","[u'low', u'high', u'medium']","red",50,"middle","high","False","False",471,1400,NA
"A1NR3COO33J99C","Sat Oct 03 2020 11:16:57 GMT-0400 (Eastern Daylight Time)","Sat Oct 03 2020 11:35:45 GMT-0400 (Eastern Daylight Time)","Mozilla/5.0 (X11; CrOS aarch64 13310.93.0) AppleWebKit/537.36 (KHTML, like Gecko) Chrome/85.0.4183.133 Safari/537.36",36,"[0.9, 0.5, 0.1]","[0.8, 0.4, 0.2]","[u'black', u'red', u'blue']","[u'left', u'middle', u'right']","[0.9, 0.5, 0.1]","[u'low', u'high', u'medium']","blue",51,"right","medium","True","False",567,1500,NA
"A1NR3COO33J99C","Sat Oct 03 2020 11:16:57 GMT-0400 (Eastern Daylight Time)","Sat Oct 03 2020 11:35:45 GMT-0400 (Eastern Daylight Time)","Mozilla/5.0 (X11; CrOS aarch64 13310.93.0) AppleWebKit/537.36 (KHTML, like Gecko) Chrome/85.0.4183.133 Safari/537.36",37,"[0.9, 0.5, 0.1]","[0.8, 0.4, 0.2]","[u'black', u'red', u'blue']","[u'left', u'middle', u'right']","[0.9, 0.5, 0.1]","[u'low', u'high', u'medium']","blue",51,"right","medium","False","False",602,1450,NA
"A1NR3COO33J99C","Sat Oct 03 2020 11:16:57 GMT-0400 (Eastern Daylight Time)","Sat Oct 03 2020 11:35:45 GMT-0400 (Eastern Daylight Time)","Mozilla/5.0 (X11; CrOS aarch64 13310.93.0) AppleWebKit/537.36 (KHTML, like Gecko) Chrome/85.0.4183.133 Safari/537.36",38,"[0.9, 0.5, 0.1]","[0.8, 0.4, 0.2]","[u'black', u'red', u'blue']","[u'left', u'middle', u'right']","[0.9, 0.5, 0.1]","[u'low', u'high', u'medium']","red",50,"middle","high","True","False",632,1550,NA
"A1NR3COO33J99C","Sat Oct 03 2020 11:16:57 GMT-0400 (Eastern Daylight Time)","Sat Oct 03 2020 11:35:45 GMT-0400 (Eastern Daylight Time)","Mozilla/5.0 (X11; CrOS aarch64 13310.93.0) AppleWebKit/537.36 (KHTML, like Gecko) Chrome/85.0.4183.133 Safari/537.36",39,"[0.9, 0.5, 0.1]","[0.8, 0.4, 0.2]","[u'black', u'red', u'blue']","[u'left', u'middle', u'right']","[0.9, 0.5, 0.1]","[u'low', u'high', u'medium']","black",49,"left","low","True","False",304,1650,NA
"A1NR3COO33J99C","Sat Oct 03 2020 11:16:57 GMT-0400 (Eastern Daylight Time)","Sat Oct 03 2020 11:35:45 GMT-0400 (Eastern Daylight Time)","Mozilla/5.0 (X11; CrOS aarch64 13310.93.0) AppleWebKit/537.36 (KHTML, like Gecko) Chrome/85.0.4183.133 Safari/537.36",40,"[0.9, 0.5, 0.1]","[0.8, 0.4, 0.2]","[u'black', u'red', u'blue']","[u'left', u'middle', u'right']","[0.9, 0.5, 0.1]","[u'low', u'high', u'medium']","blue",51,"right","medium","True","False",439,1750,NA
"A1NR3COO33J99C","Sat Oct 03 2020 11:16:57 GMT-0400 (Eastern Daylight Time)","Sat Oct 03 2020 11:35:45 GMT-0400 (Eastern Daylight Time)","Mozilla/5.0 (X11; CrOS aarch64 13310.93.0) AppleWebKit/537.36 (KHTML, like Gecko) Chrome/85.0.4183.133 Safari/537.36",41,"[0.9, 0.5, 0.1]","[0.8, 0.4, 0.2]","[u'black', u'red', u'blue']","[u'left', u'middle', u'right']","[0.9, 0.5, 0.1]","[u'high', u'medium', u'low']","blue",51,"right","low","False","False",1201,1700,NA
"A1NR3COO33J99C","Sat Oct 03 2020 11:16:57 GMT-0400 (Eastern Daylight Time)","Sat Oct 03 2020 11:35:45 GMT-0400 (Eastern Daylight Time)","Mozilla/5.0 (X11; CrOS aarch64 13310.93.0) AppleWebKit/537.36 (KHTML, like Gecko) Chrome/85.0.4183.133 Safari/537.36",42,"[0.9, 0.5, 0.1]","[0.8, 0.4, 0.2]","[u'black', u'red', u'blue']","[u'left', u'middle', u'right']","[0.9, 0.5, 0.1]","[u'high', u'medium', u'low']","red",50,"middle","medium","True","False",347,1800,NA
"A1NR3COO33J99C","Sat Oct 03 2020 11:16:57 GMT-0400 (Eastern Daylight Time)","Sat Oct 03 2020 11:35:45 GMT-0400 (Eastern Daylight Time)","Mozilla/5.0 (X11; CrOS aarch64 13310.93.0) AppleWebKit/537.36 (KHTML, like Gecko) Chrome/85.0.4183.133 Safari/537.36",43,"[0.9, 0.5, 0.1]","[0.8, 0.4, 0.2]","[u'black', u'red', u'blue']","[u'left', u'middle', u'right']","[0.9, 0.5, 0.1]","[u'high', u'medium', u'low']","red",50,"middle","medium","False","False",256,1750,NA
"A1NR3COO33J99C","Sat Oct 03 2020 11:16:57 GMT-0400 (Eastern Daylight Time)","Sat Oct 03 2020 11:35:45 GMT-0400 (Eastern Daylight Time)","Mozilla/5.0 (X11; CrOS aarch64 13310.93.0) AppleWebKit/537.36 (KHTML, like Gecko) Chrome/85.0.4183.133 Safari/537.36",44,"[0.9, 0.5, 0.1]","[0.8, 0.4, 0.2]","[u'black', u'red', u'blue']","[u'left', u'middle', u'right']","[0.9, 0.5, 0.1]","[u'high', u'medium', u'low']","black",49,"left","high","True","False",275,1850,NA
"A1NR3COO33J99C","Sat Oct 03 2020 11:16:57 GMT-0400 (Eastern Daylight Time)","Sat Oct 03 2020 11:35:45 GMT-0400 (Eastern Daylight Time)","Mozilla/5.0 (X11; CrOS aarch64 13310.93.0) AppleWebKit/537.36 (KHTML, like Gecko) Chrome/85.0.4183.133 Safari/537.36",45,"[0.9, 0.5, 0.1]","[0.8, 0.4, 0.2]","[u'black', u'red', u'blue']","[u'left', u'middle', u'right']","[0.9, 0.5, 0.1]","[u'high', u'medium', u'low']","blue",51,"right","low","False","False",355,1800,NA
"A1NR3COO33J99C","Sat Oct 03 2020 11:16:57 GMT-0400 (Eastern Daylight Time)","Sat Oct 03 2020 11:35:45 GMT-0400 (Eastern Daylight Time)","Mozilla/5.0 (X11; CrOS aarch64 13310.93.0) AppleWebKit/537.36 (KHTML, like Gecko) Chrome/85.0.4183.133 Safari/537.36",46,"[0.9, 0.5, 0.1]","[0.8, 0.4, 0.2]","[u'black', u'red', u'blue']","[u'left', u'middle', u'right']","[0.9, 0.5, 0.1]","[u'high', u'medium', u'low']","black",49,"left","high","True","False",311,1900,NA
"A1NR3COO33J99C","Sat Oct 03 2020 11:16:57 GMT-0400 (Eastern Daylight Time)","Sat Oct 03 2020 11:35:45 GMT-0400 (Eastern Daylight Time)","Mozilla/5.0 (X11; CrOS aarch64 13310.93.0) AppleWebKit/537.36 (KHTML, like Gecko) Chrome/85.0.4183.133 Safari/537.36",47,"[0.9, 0.5, 0.1]","[0.8, 0.4, 0.2]","[u'black', u'red', u'blue']","[u'left', u'middle', u'right']","[0.9, 0.5, 0.1]","[u'high', u'medium', u'low']","red",50,"middle","medium","True","False",274,2000,NA
"A1NR3COO33J99C","Sat Oct 03 2020 11:16:57 GMT-0400 (Eastern Daylight Time)","Sat Oct 03 2020 11:35:45 GMT-0400 (Eastern Daylight Time)","Mozilla/5.0 (X11; CrOS aarch64 13310.93.0) AppleWebKit/537.36 (KHTML, like Gecko) Chrome/85.0.4183.133 Safari/537.36",48,"[0.9, 0.5, 0.1]","[0.8, 0.4, 0.2]","[u'black', u'red', u'blue']","[u'left', u'middle', u'right']","[0.9, 0.5, 0.1]","[u'high', u'medium', u'low']","black",49,"left","high","True","False",283,2100,NA
"A1NR3COO33J99C","Sat Oct 03 2020 11:16:57 GMT-0400 (Eastern Daylight Time)","Sat Oct 03 2020 11:35:45 GMT-0400 (Eastern Daylight Time)","Mozilla/5.0 (X11; CrOS aarch64 13310.93.0) AppleWebKit/537.36 (KHTML, like Gecko) Chrome/85.0.4183.133 Safari/537.36",49,"[0.9, 0.5, 0.1]","[0.8, 0.4, 0.2]","[u'black', u'red', u'blue']","[u'left', u'middle', u'right']","[0.9, 0.5, 0.1]","[u'high', u'medium', u'low']","black",49,"left","high","True","False",430,2200,NA
"A1NR3COO33J99C","Sat Oct 03 2020 11:16:57 GMT-0400 (Eastern Daylight Time)","Sat Oct 03 2020 11:35:45 GMT-0400 (Eastern Daylight Time)","Mozilla/5.0 (X11; CrOS aarch64 13310.93.0) AppleWebKit/537.36 (KHTML, like Gecko) Chrome/85.0.4183.133 Safari/537.36",50,"[0.9, 0.5, 0.1]","[0.8, 0.4, 0.2]","[u'black', u'red', u'blue']","[u'left', u'middle', u'right']","[0.9, 0.5, 0.1]","[u'high', u'medium', u'low']","red",50,"middle","medium","True","False",94,2300,NA
"A1NR3COO33J99C","Sat Oct 03 2020 11:16:57 GMT-0400 (Eastern Daylight Time)","Sat Oct 03 2020 11:35:45 GMT-0400 (Eastern Daylight Time)","Mozilla/5.0 (X11; CrOS aarch64 13310.93.0) AppleWebKit/537.36 (KHTML, like Gecko) Chrome/85.0.4183.133 Safari/537.36",51,"[0.9, 0.5, 0.1]","[0.8, 0.4, 0.2]","[u'black', u'red', u'blue']","[u'left', u'middle', u'right']","[0.9, 0.5, 0.1]","[u'high', u'medium', u'low']","red",50,"middle","medium","True","False",170,2400,NA
"A1NR3COO33J99C","Sat Oct 03 2020 11:16:57 GMT-0400 (Eastern Daylight Time)","Sat Oct 03 2020 11:35:45 GMT-0400 (Eastern Daylight Time)","Mozilla/5.0 (X11; CrOS aarch64 13310.93.0) AppleWebKit/537.36 (KHTML, like Gecko) Chrome/85.0.4183.133 Safari/537.36",52,"[0.9, 0.5, 0.1]","[0.8, 0.4, 0.2]","[u'black', u'red', u'blue']","[u'left', u'middle', u'right']","[0.9, 0.5, 0.1]","[u'high', u'medium', u'low']","black",49,"left","high","True","False",231,2500,NA
"A1NR3COO33J99C","Sat Oct 03 2020 11:16:57 GMT-0400 (Eastern Daylight Time)","Sat Oct 03 2020 11:35:45 GMT-0400 (Eastern Daylight Time)","Mozilla/5.0 (X11; CrOS aarch64 13310.93.0) AppleWebKit/537.36 (KHTML, like Gecko) Chrome/85.0.4183.133 Safari/537.36",53,"[0.9, 0.5, 0.1]","[0.8, 0.4, 0.2]","[u'black', u'red', u'blue']","[u'left', u'middle', u'right']","[0.9, 0.5, 0.1]","[u'high', u'medium', u'low']","red",50,"middle","medium","True","False",181,2600,NA
"A1NR3COO33J99C","Sat Oct 03 2020 11:16:57 GMT-0400 (Eastern Daylight Time)","Sat Oct 03 2020 11:35:45 GMT-0400 (Eastern Daylight Time)","Mozilla/5.0 (X11; CrOS aarch64 13310.93.0) AppleWebKit/537.36 (KHTML, like Gecko) Chrome/85.0.4183.133 Safari/537.36",54,"[0.9, 0.5, 0.1]","[0.8, 0.4, 0.2]","[u'black', u'red', u'blue']","[u'left', u'middle', u'right']","[0.9, 0.5, 0.1]","[u'high', u'medium', u'low']","red",50,"middle","medium","True","False",189,2700,NA
"A1NR3COO33J99C","Sat Oct 03 2020 11:16:57 GMT-0400 (Eastern Daylight Time)","Sat Oct 03 2020 11:35:45 GMT-0400 (Eastern Daylight Time)","Mozilla/5.0 (X11; CrOS aarch64 13310.93.0) AppleWebKit/537.36 (KHTML, like Gecko) Chrome/85.0.4183.133 Safari/537.36",55,"[0.9, 0.5, 0.1]","[0.8, 0.4, 0.2]","[u'black', u'red', u'blue']","[u'left', u'middle', u'right']","[0.9, 0.5, 0.1]","[u'high', u'medium', u'low']","black",49,"left","high","True","False",449,2800,NA
"A1NR3COO33J99C","Sat Oct 03 2020 11:16:57 GMT-0400 (Eastern Daylight Time)","Sat Oct 03 2020 11:35:45 GMT-0400 (Eastern Daylight Time)","Mozilla/5.0 (X11; CrOS aarch64 13310.93.0) AppleWebKit/537.36 (KHTML, like Gecko) Chrome/85.0.4183.133 Safari/537.36",56,"[0.9, 0.5, 0.1]","[0.8, 0.4, 0.2]","[u'black', u'red', u'blue']","[u'left', u'middle', u'right']","[0.9, 0.5, 0.1]","[u'high', u'medium', u'low']","black",49,"left","high","True","False",275,2900,NA
"A1NR3COO33J99C","Sat Oct 03 2020 11:16:57 GMT-0400 (Eastern Daylight Time)","Sat Oct 03 2020 11:35:45 GMT-0400 (Eastern Daylight Time)","Mozilla/5.0 (X11; CrOS aarch64 13310.93.0) AppleWebKit/537.36 (KHTML, like Gecko) Chrome/85.0.4183.133 Safari/537.36",57,"[0.9, 0.5, 0.1]","[0.8, 0.4, 0.2]","[u'black', u'red', u'blue']","[u'left', u'middle', u'right']","[0.9, 0.5, 0.1]","[u'high', u'medium', u'low']","black",49,"left","high","True","False",279,3000,NA
"A1NR3COO33J99C","Sat Oct 03 2020 11:16:57 GMT-0400 (Eastern Daylight Time)","Sat Oct 03 2020 11:35:45 GMT-0400 (Eastern Daylight Time)","Mozilla/5.0 (X11; CrOS aarch64 13310.93.0) AppleWebKit/537.36 (KHTML, like Gecko) Chrome/85.0.4183.133 Safari/537.36",58,"[0.9, 0.5, 0.1]","[0.8, 0.4, 0.2]","[u'black', u'red', u'blue']","[u'left', u'middle', u'right']","[0.9, 0.5, 0.1]","[u'high', u'medium', u'low']","red",50,"middle","medium","True","False",111,3100,NA
"A1NR3COO33J99C","Sat Oct 03 2020 11:16:57 GMT-0400 (Eastern Daylight Time)","Sat Oct 03 2020 11:35:45 GMT-0400 (Eastern Daylight Time)","Mozilla/5.0 (X11; CrOS aarch64 13310.93.0) AppleWebKit/537.36 (KHTML, like Gecko) Chrome/85.0.4183.133 Safari/537.36",59,"[0.9, 0.5, 0.1]","[0.8, 0.4, 0.2]","[u'black', u'red', u'blue']","[u'left', u'middle', u'right']","[0.9, 0.5, 0.1]","[u'high', u'medium', u'low']","red",50,"middle","medium","False","False",11,3050,NA
"A1NR3COO33J99C","Sat Oct 03 2020 11:16:57 GMT-0400 (Eastern Daylight Time)","Sat Oct 03 2020 11:35:45 GMT-0400 (Eastern Daylight Time)","Mozilla/5.0 (X11; CrOS aarch64 13310.93.0) AppleWebKit/537.36 (KHTML, like Gecko) Chrome/85.0.4183.133 Safari/537.36",60,"[0.9, 0.5, 0.1]","[0.8, 0.4, 0.2]","[u'black', u'red', u'blue']","[u'left', u'middle', u'right']","[0.9, 0.5, 0.1]","[u'high', u'medium', u'low']","black",49,"left","high","True","False",220,3150,NA
"A1NR3COO33J99C","Sat Oct 03 2020 11:16:57 GMT-0400 (Eastern Daylight Time)","Sat Oct 03 2020 11:35:45 GMT-0400 (Eastern Daylight Time)","Mozilla/5.0 (X11; CrOS aarch64 13310.93.0) AppleWebKit/537.36 (KHTML, like Gecko) Chrome/85.0.4183.133 Safari/537.36",61,"[0.9, 0.5, 0.1]","[0.8, 0.4, 0.2]","[u'black', u'red', u'blue']","[u'left', u'middle', u'right']","[0.9, 0.5, 0.1]","[u'high', u'medium', u'low']","black",49,"left","high","True","False",285,3250,NA
"A1NR3COO33J99C","Sat Oct 03 2020 11:16:57 GMT-0400 (Eastern Daylight Time)","Sat Oct 03 2020 11:35:45 GMT-0400 (Eastern Daylight Time)","Mozilla/5.0 (X11; CrOS aarch64 13310.93.0) AppleWebKit/537.36 (KHTML, like Gecko) Chrome/85.0.4183.133 Safari/537.36",62,"[0.9, 0.5, 0.1]","[0.8, 0.4, 0.2]","[u'black', u'red', u'blue']","[u'left', u'middle', u'right']","[0.9, 0.5, 0.1]","[u'high', u'medium', u'low']","red",50,"middle","medium","True","False",559,3350,NA
"A1NR3COO33J99C","Sat Oct 03 2020 11:16:57 GMT-0400 (Eastern Daylight Time)","Sat Oct 03 2020 11:35:45 GMT-0400 (Eastern Daylight Time)","Mozilla/5.0 (X11; CrOS aarch64 13310.93.0) AppleWebKit/537.36 (KHTML, like Gecko) Chrome/85.0.4183.133 Safari/537.36",63,"[0.9, 0.5, 0.1]","[0.8, 0.4, 0.2]","[u'black', u'red', u'blue']","[u'left', u'middle', u'right']","[0.9, 0.5, 0.1]","[u'high', u'medium', u'low']","black",49,"left","high","True","False",539,3450,NA
"A1NR3COO33J99C","Sat Oct 03 2020 11:16:57 GMT-0400 (Eastern Daylight Time)","Sat Oct 03 2020 11:35:45 GMT-0400 (Eastern Daylight Time)","Mozilla/5.0 (X11; CrOS aarch64 13310.93.0) AppleWebKit/537.36 (KHTML, like Gecko) Chrome/85.0.4183.133 Safari/537.36",64,"[0.9, 0.5, 0.1]","[0.8, 0.4, 0.2]","[u'black', u'red', u'blue']","[u'left', u'middle', u'right']","[0.9, 0.5, 0.1]","[u'high', u'medium', u'low']","black",49,"left","high","True","False",454,3550,NA
"A1NR3COO33J99C","Sat Oct 03 2020 11:16:57 GMT-0400 (Eastern Daylight Time)","Sat Oct 03 2020 11:35:45 GMT-0400 (Eastern Daylight Time)","Mozilla/5.0 (X11; CrOS aarch64 13310.93.0) AppleWebKit/537.36 (KHTML, like Gecko) Chrome/85.0.4183.133 Safari/537.36",65,"[0.9, 0.5, 0.1]","[0.8, 0.4, 0.2]","[u'black', u'red', u'blue']","[u'left', u'middle', u'right']","[0.9, 0.5, 0.1]","[u'high', u'medium', u'low']","red",50,"middle","medium","False","False",86,3500,NA
"A1NR3COO33J99C","Sat Oct 03 2020 11:16:57 GMT-0400 (Eastern Daylight Time)","Sat Oct 03 2020 11:35:45 GMT-0400 (Eastern Daylight Time)","Mozilla/5.0 (X11; CrOS aarch64 13310.93.0) AppleWebKit/537.36 (KHTML, like Gecko) Chrome/85.0.4183.133 Safari/537.36",66,"[0.9, 0.5, 0.1]","[0.8, 0.4, 0.2]","[u'black', u'red', u'blue']","[u'left', u'middle', u'right']","[0.9, 0.5, 0.1]","[u'high', u'medium', u'low']","black",49,"left","high","True","False",374,3600,NA
"A1NR3COO33J99C","Sat Oct 03 2020 11:16:57 GMT-0400 (Eastern Daylight Time)","Sat Oct 03 2020 11:35:45 GMT-0400 (Eastern Daylight Time)","Mozilla/5.0 (X11; CrOS aarch64 13310.93.0) AppleWebKit/537.36 (KHTML, like Gecko) Chrome/85.0.4183.133 Safari/537.36",67,"[0.9, 0.5, 0.1]","[0.8, 0.4, 0.2]","[u'black', u'red', u'blue']","[u'left', u'middle', u'right']","[0.9, 0.5, 0.1]","[u'high', u'medium', u'low']","black",49,"left","high","True","False",379,3700,NA
"A1NR3COO33J99C","Sat Oct 03 2020 11:16:57 GMT-0400 (Eastern Daylight Time)","Sat Oct 03 2020 11:35:45 GMT-0400 (Eastern Daylight Time)","Mozilla/5.0 (X11; CrOS aarch64 13310.93.0) AppleWebKit/537.36 (KHTML, like Gecko) Chrome/85.0.4183.133 Safari/537.36",68,"[0.9, 0.5, 0.1]","[0.8, 0.4, 0.2]","[u'black', u'red', u'blue']","[u'left', u'middle', u'right']","[0.9, 0.5, 0.1]","[u'high', u'medium', u'low']","black",49,"left","high","True","False",240,3800,NA
"A1NR3COO33J99C","Sat Oct 03 2020 11:16:57 GMT-0400 (Eastern Daylight Time)","Sat Oct 03 2020 11:35:45 GMT-0400 (Eastern Daylight Time)","Mozilla/5.0 (X11; CrOS aarch64 13310.93.0) AppleWebKit/537.36 (KHTML, like Gecko) Chrome/85.0.4183.133 Safari/537.36",69,"[0.9, 0.5, 0.1]","[0.8, 0.4, 0.2]","[u'black', u'red', u'blue']","[u'left', u'middle', u'right']","[0.9, 0.5, 0.1]","[u'high', u'medium', u'low']","black",49,"left","high","True","False",598,3900,NA
"A1NR3COO33J99C","Sat Oct 03 2020 11:16:57 GMT-0400 (Eastern Daylight Time)","Sat Oct 03 2020 11:35:45 GMT-0400 (Eastern Daylight Time)","Mozilla/5.0 (X11; CrOS aarch64 13310.93.0) AppleWebKit/537.36 (KHTML, like Gecko) Chrome/85.0.4183.133 Safari/537.36",70,"[0.9, 0.5, 0.1]","[0.8, 0.4, 0.2]","[u'black', u'red', u'blue']","[u'left', u'middle', u'right']","[0.9, 0.5, 0.1]","[u'high', u'medium', u'low']","black",49,"left","high","True","False",345,4000,NA
"A1NR3COO33J99C","Sat Oct 03 2020 11:16:57 GMT-0400 (Eastern Daylight Time)","Sat Oct 03 2020 11:35:45 GMT-0400 (Eastern Daylight Time)","Mozilla/5.0 (X11; CrOS aarch64 13310.93.0) AppleWebKit/537.36 (KHTML, like Gecko) Chrome/85.0.4183.133 Safari/537.36",71,"[0.9, 0.5, 0.1]","[0.8, 0.4, 0.2]","[u'black', u'red', u'blue']","[u'left', u'middle', u'right']","[0.9, 0.5, 0.1]","[u'high', u'medium', u'low']","black",49,"left","high","True","False",332,4100,NA
"A1NR3COO33J99C","Sat Oct 03 2020 11:16:57 GMT-0400 (Eastern Daylight Time)","Sat Oct 03 2020 11:35:45 GMT-0400 (Eastern Daylight Time)","Mozilla/5.0 (X11; CrOS aarch64 13310.93.0) AppleWebKit/537.36 (KHTML, like Gecko) Chrome/85.0.4183.133 Safari/537.36",72,"[0.9, 0.5, 0.1]","[0.8, 0.4, 0.2]","[u'black', u'red', u'blue']","[u'left', u'middle', u'right']","[0.9, 0.5, 0.1]","[u'high', u'medium', u'low']","black",49,"left","high","True","False",324,4200,NA
"A1NR3COO33J99C","Sat Oct 03 2020 11:16:57 GMT-0400 (Eastern Daylight Time)","Sat Oct 03 2020 11:35:45 GMT-0400 (Eastern Daylight Time)","Mozilla/5.0 (X11; CrOS aarch64 13310.93.0) AppleWebKit/537.36 (KHTML, like Gecko) Chrome/85.0.4183.133 Safari/537.36",73,"[0.9, 0.5, 0.1]","[0.8, 0.4, 0.2]","[u'black', u'red', u'blue']","[u'left', u'middle', u'right']","[0.9, 0.5, 0.1]","[u'high', u'medium', u'low']","black",49,"left","high","True","False",276,4300,NA
"A1NR3COO33J99C","Sat Oct 03 2020 11:16:57 GMT-0400 (Eastern Daylight Time)","Sat Oct 03 2020 11:35:45 GMT-0400 (Eastern Daylight Time)","Mozilla/5.0 (X11; CrOS aarch64 13310.93.0) AppleWebKit/537.36 (KHTML, like Gecko) Chrome/85.0.4183.133 Safari/537.36",74,"[0.9, 0.5, 0.1]","[0.8, 0.4, 0.2]","[u'black', u'red', u'blue']","[u'left', u'middle', u'right']","[0.9, 0.5, 0.1]","[u'high', u'medium', u'low']","black",49,"left","high","True","True",294,4400,NA
"A1NR3COO33J99C","Sat Oct 03 2020 11:16:57 GMT-0400 (Eastern Daylight Time)","Sat Oct 03 2020 11:35:45 GMT-0400 (Eastern Daylight Time)","Mozilla/5.0 (X11; CrOS aarch64 13310.93.0) AppleWebKit/537.36 (KHTML, like Gecko) Chrome/85.0.4183.133 Safari/537.36",75,"[0.9, 0.5, 0.1]","[0.8, 0.4, 0.2]","[u'black', u'red', u'blue']","[u'left', u'middle', u'right']","[0.9, 0.5, 0.1]","[u'medium', u'high', u'low']","black",49,"left","medium","True","False",263,4500,NA
"A1NR3COO33J99C","Sat Oct 03 2020 11:16:57 GMT-0400 (Eastern Daylight Time)","Sat Oct 03 2020 11:35:45 GMT-0400 (Eastern Daylight Time)","Mozilla/5.0 (X11; CrOS aarch64 13310.93.0) AppleWebKit/537.36 (KHTML, like Gecko) Chrome/85.0.4183.133 Safari/537.36",76,"[0.9, 0.5, 0.1]","[0.8, 0.4, 0.2]","[u'black', u'red', u'blue']","[u'left', u'middle', u'right']","[0.9, 0.5, 0.1]","[u'medium', u'high', u'low']","black",49,"left","medium","True","False",306,4600,NA
"A1NR3COO33J99C","Sat Oct 03 2020 11:16:57 GMT-0400 (Eastern Daylight Time)","Sat Oct 03 2020 11:35:45 GMT-0400 (Eastern Daylight Time)","Mozilla/5.0 (X11; CrOS aarch64 13310.93.0) AppleWebKit/537.36 (KHTML, like Gecko) Chrome/85.0.4183.133 Safari/537.36",77,"[0.9, 0.5, 0.1]","[0.8, 0.4, 0.2]","[u'black', u'red', u'blue']","[u'left', u'middle', u'right']","[0.9, 0.5, 0.1]","[u'medium', u'high', u'low']","black",49,"left","medium","True","False",187,4700,NA
"A1NR3COO33J99C","Sat Oct 03 2020 11:16:57 GMT-0400 (Eastern Daylight Time)","Sat Oct 03 2020 11:35:45 GMT-0400 (Eastern Daylight Time)","Mozilla/5.0 (X11; CrOS aarch64 13310.93.0) AppleWebKit/537.36 (KHTML, like Gecko) Chrome/85.0.4183.133 Safari/537.36",78,"[0.9, 0.5, 0.1]","[0.8, 0.4, 0.2]","[u'black', u'red', u'blue']","[u'left', u'middle', u'right']","[0.9, 0.5, 0.1]","[u'medium', u'high', u'low']","black",49,"left","medium","True","False",292,4800,NA
"A1NR3COO33J99C","Sat Oct 03 2020 11:16:57 GMT-0400 (Eastern Daylight Time)","Sat Oct 03 2020 11:35:45 GMT-0400 (Eastern Daylight Time)","Mozilla/5.0 (X11; CrOS aarch64 13310.93.0) AppleWebKit/537.36 (KHTML, like Gecko) Chrome/85.0.4183.133 Safari/537.36",79,"[0.9, 0.5, 0.1]","[0.8, 0.4, 0.2]","[u'black', u'red', u'blue']","[u'left', u'middle', u'right']","[0.9, 0.5, 0.1]","[u'medium', u'high', u'low']","black",49,"left","medium","True","False",260,4900,NA
"A1NR3COO33J99C","Sat Oct 03 2020 11:16:57 GMT-0400 (Eastern Daylight Time)","Sat Oct 03 2020 11:35:45 GMT-0400 (Eastern Daylight Time)","Mozilla/5.0 (X11; CrOS aarch64 13310.93.0) AppleWebKit/537.36 (KHTML, like Gecko) Chrome/85.0.4183.133 Safari/537.36",80,"[0.9, 0.5, 0.1]","[0.8, 0.4, 0.2]","[u'black', u'red', u'blue']","[u'left', u'middle', u'right']","[0.9, 0.5, 0.1]","[u'medium', u'high', u'low']","black",49,"left","medium","False","False",268,4850,NA
"A1NR3COO33J99C","Sat Oct 03 2020 11:16:57 GMT-0400 (Eastern Daylight Time)","Sat Oct 03 2020 11:35:45 GMT-0400 (Eastern Daylight Time)","Mozilla/5.0 (X11; CrOS aarch64 13310.93.0) AppleWebKit/537.36 (KHTML, like Gecko) Chrome/85.0.4183.133 Safari/537.36",81,"[0.9, 0.5, 0.1]","[0.8, 0.4, 0.2]","[u'black', u'red', u'blue']","[u'left', u'middle', u'right']","[0.8, 0.4, 0.2]","[u'medium', u'low', u'high']","red",50,"middle","low","False","False",1241,4800,NA
"A1NR3COO33J99C","Sat Oct 03 2020 11:16:57 GMT-0400 (Eastern Daylight Time)","Sat Oct 03 2020 11:35:45 GMT-0400 (Eastern Daylight Time)","Mozilla/5.0 (X11; CrOS aarch64 13310.93.0) AppleWebKit/537.36 (KHTML, like Gecko) Chrome/85.0.4183.133 Safari/537.36",82,"[0.9, 0.5, 0.1]","[0.8, 0.4, 0.2]","[u'black', u'red', u'blue']","[u'left', u'middle', u'right']","[0.8, 0.4, 0.2]","[u'medium', u'low', u'high']","black",49,"left","medium","True","False",315,4900,NA
"A1NR3COO33J99C","Sat Oct 03 2020 11:16:57 GMT-0400 (Eastern Daylight Time)","Sat Oct 03 2020 11:35:45 GMT-0400 (Eastern Daylight Time)","Mozilla/5.0 (X11; CrOS aarch64 13310.93.0) AppleWebKit/537.36 (KHTML, like Gecko) Chrome/85.0.4183.133 Safari/537.36",83,"[0.9, 0.5, 0.1]","[0.8, 0.4, 0.2]","[u'black', u'red', u'blue']","[u'left', u'middle', u'right']","[0.8, 0.4, 0.2]","[u'medium', u'low', u'high']","black",49,"left","medium","True","False",447,5000,NA
"A1NR3COO33J99C","Sat Oct 03 2020 11:16:57 GMT-0400 (Eastern Daylight Time)","Sat Oct 03 2020 11:35:45 GMT-0400 (Eastern Daylight Time)","Mozilla/5.0 (X11; CrOS aarch64 13310.93.0) AppleWebKit/537.36 (KHTML, like Gecko) Chrome/85.0.4183.133 Safari/537.36",84,"[0.9, 0.5, 0.1]","[0.8, 0.4, 0.2]","[u'black', u'red', u'blue']","[u'left', u'middle', u'right']","[0.8, 0.4, 0.2]","[u'medium', u'low', u'high']","blue",51,"right","high","False","False",368,4950,NA
"A1NR3COO33J99C","Sat Oct 03 2020 11:16:57 GMT-0400 (Eastern Daylight Time)","Sat Oct 03 2020 11:35:45 GMT-0400 (Eastern Daylight Time)","Mozilla/5.0 (X11; CrOS aarch64 13310.93.0) AppleWebKit/537.36 (KHTML, like Gecko) Chrome/85.0.4183.133 Safari/537.36",85,"[0.9, 0.5, 0.1]","[0.8, 0.4, 0.2]","[u'black', u'red', u'blue']","[u'left', u'middle', u'right']","[0.8, 0.4, 0.2]","[u'medium', u'low', u'high']","black",49,"left","medium","False","False",427,4900,NA
"A1NR3COO33J99C","Sat Oct 03 2020 11:16:57 GMT-0400 (Eastern Daylight Time)","Sat Oct 03 2020 11:35:45 GMT-0400 (Eastern Daylight Time)","Mozilla/5.0 (X11; CrOS aarch64 13310.93.0) AppleWebKit/537.36 (KHTML, like Gecko) Chrome/85.0.4183.133 Safari/537.36",86,"[0.9, 0.5, 0.1]","[0.8, 0.4, 0.2]","[u'black', u'red', u'blue']","[u'left', u'middle', u'right']","[0.8, 0.4, 0.2]","[u'medium', u'low', u'high']","red",50,"middle","low","False","False",296,4850,NA
"A1NR3COO33J99C","Sat Oct 03 2020 11:16:57 GMT-0400 (Eastern Daylight Time)","Sat Oct 03 2020 11:35:45 GMT-0400 (Eastern Daylight Time)","Mozilla/5.0 (X11; CrOS aarch64 13310.93.0) AppleWebKit/537.36 (KHTML, like Gecko) Chrome/85.0.4183.133 Safari/537.36",87,"[0.9, 0.5, 0.1]","[0.8, 0.4, 0.2]","[u'black', u'red', u'blue']","[u'left', u'middle', u'right']","[0.8, 0.4, 0.2]","[u'medium', u'low', u'high']","blue",51,"right","high","True","False",228,4950,NA
"A1NR3COO33J99C","Sat Oct 03 2020 11:16:57 GMT-0400 (Eastern Daylight Time)","Sat Oct 03 2020 11:35:45 GMT-0400 (Eastern Daylight Time)","Mozilla/5.0 (X11; CrOS aarch64 13310.93.0) AppleWebKit/537.36 (KHTML, like Gecko) Chrome/85.0.4183.133 Safari/537.36",88,"[0.9, 0.5, 0.1]","[0.8, 0.4, 0.2]","[u'black', u'red', u'blue']","[u'left', u'middle', u'right']","[0.8, 0.4, 0.2]","[u'medium', u'low', u'high']","blue",51,"right","high","True","False",716,5050,NA
"A1NR3COO33J99C","Sat Oct 03 2020 11:16:57 GMT-0400 (Eastern Daylight Time)","Sat Oct 03 2020 11:35:45 GMT-0400 (Eastern Daylight Time)","Mozilla/5.0 (X11; CrOS aarch64 13310.93.0) AppleWebKit/537.36 (KHTML, like Gecko) Chrome/85.0.4183.133 Safari/537.36",89,"[0.9, 0.5, 0.1]","[0.8, 0.4, 0.2]","[u'black', u'red', u'blue']","[u'left', u'middle', u'right']","[0.8, 0.4, 0.2]","[u'medium', u'low', u'high']","blue",51,"right","high","True","False",605,5150,NA
"A1NR3COO33J99C","Sat Oct 03 2020 11:16:57 GMT-0400 (Eastern Daylight Time)","Sat Oct 03 2020 11:35:45 GMT-0400 (Eastern Daylight Time)","Mozilla/5.0 (X11; CrOS aarch64 13310.93.0) AppleWebKit/537.36 (KHTML, like Gecko) Chrome/85.0.4183.133 Safari/537.36",90,"[0.9, 0.5, 0.1]","[0.8, 0.4, 0.2]","[u'black', u'red', u'blue']","[u'left', u'middle', u'right']","[0.8, 0.4, 0.2]","[u'medium', u'low', u'high']","blue",51,"right","high","True","False",299,5250,NA
"A1NR3COO33J99C","Sat Oct 03 2020 11:16:57 GMT-0400 (Eastern Daylight Time)","Sat Oct 03 2020 11:35:45 GMT-0400 (Eastern Daylight Time)","Mozilla/5.0 (X11; CrOS aarch64 13310.93.0) AppleWebKit/537.36 (KHTML, like Gecko) Chrome/85.0.4183.133 Safari/537.36",91,"[0.9, 0.5, 0.1]","[0.8, 0.4, 0.2]","[u'black', u'red', u'blue']","[u'left', u'middle', u'right']","[0.8, 0.4, 0.2]","[u'medium', u'low', u'high']","blue",51,"right","high","True","False",606,5350,NA
"A1NR3COO33J99C","Sat Oct 03 2020 11:16:57 GMT-0400 (Eastern Daylight Time)","Sat Oct 03 2020 11:35:45 GMT-0400 (Eastern Daylight Time)","Mozilla/5.0 (X11; CrOS aarch64 13310.93.0) AppleWebKit/537.36 (KHTML, like Gecko) Chrome/85.0.4183.133 Safari/537.36",92,"[0.9, 0.5, 0.1]","[0.8, 0.4, 0.2]","[u'black', u'red', u'blue']","[u'left', u'middle', u'right']","[0.8, 0.4, 0.2]","[u'medium', u'low', u'high']","blue",51,"right","high","True","False",247,5450,NA
"A1NR3COO33J99C","Sat Oct 03 2020 11:16:57 GMT-0400 (Eastern Daylight Time)","Sat Oct 03 2020 11:35:45 GMT-0400 (Eastern Daylight Time)","Mozilla/5.0 (X11; CrOS aarch64 13310.93.0) AppleWebKit/537.36 (KHTML, like Gecko) Chrome/85.0.4183.133 Safari/537.36",93,"[0.9, 0.5, 0.1]","[0.8, 0.4, 0.2]","[u'black', u'red', u'blue']","[u'left', u'middle', u'right']","[0.8, 0.4, 0.2]","[u'medium', u'low', u'high']","blue",51,"right","high","True","False",164,5550,NA
"A1NR3COO33J99C","Sat Oct 03 2020 11:16:57 GMT-0400 (Eastern Daylight Time)","Sat Oct 03 2020 11:35:45 GMT-0400 (Eastern Daylight Time)","Mozilla/5.0 (X11; CrOS aarch64 13310.93.0) AppleWebKit/537.36 (KHTML, like Gecko) Chrome/85.0.4183.133 Safari/537.36",94,"[0.9, 0.5, 0.1]","[0.8, 0.4, 0.2]","[u'black', u'red', u'blue']","[u'left', u'middle', u'right']","[0.8, 0.4, 0.2]","[u'medium', u'low', u'high']","blue",51,"right","high","True","False",248,5650,NA
"A1NR3COO33J99C","Sat Oct 03 2020 11:16:57 GMT-0400 (Eastern Daylight Time)","Sat Oct 03 2020 11:35:45 GMT-0400 (Eastern Daylight Time)","Mozilla/5.0 (X11; CrOS aarch64 13310.93.0) AppleWebKit/537.36 (KHTML, like Gecko) Chrome/85.0.4183.133 Safari/537.36",95,"[0.9, 0.5, 0.1]","[0.8, 0.4, 0.2]","[u'black', u'red', u'blue']","[u'left', u'middle', u'right']","[0.8, 0.4, 0.2]","[u'medium', u'low', u'high']","blue",51,"right","high","True","True",350,5750,NA
"A1NR3COO33J99C","Sat Oct 03 2020 11:16:57 GMT-0400 (Eastern Daylight Time)","Sat Oct 03 2020 11:35:45 GMT-0400 (Eastern Daylight Time)","Mozilla/5.0 (X11; CrOS aarch64 13310.93.0) AppleWebKit/537.36 (KHTML, like Gecko) Chrome/85.0.4183.133 Safari/537.36",96,"[0.9, 0.5, 0.1]","[0.8, 0.4, 0.2]","[u'black', u'red', u'blue']","[u'left', u'middle', u'right']","[0.8, 0.4, 0.2]","[u'medium', u'high', u'low']","blue",51,"right","low","False","False",184,5700,NA
"A1NR3COO33J99C","Sat Oct 03 2020 11:16:57 GMT-0400 (Eastern Daylight Time)","Sat Oct 03 2020 11:35:45 GMT-0400 (Eastern Daylight Time)","Mozilla/5.0 (X11; CrOS aarch64 13310.93.0) AppleWebKit/537.36 (KHTML, like Gecko) Chrome/85.0.4183.133 Safari/537.36",97,"[0.9, 0.5, 0.1]","[0.8, 0.4, 0.2]","[u'black', u'red', u'blue']","[u'left', u'middle', u'right']","[0.8, 0.4, 0.2]","[u'medium', u'high', u'low']","black",49,"left","medium","True","False",429,5800,NA
"A1NR3COO33J99C","Sat Oct 03 2020 11:16:57 GMT-0400 (Eastern Daylight Time)","Sat Oct 03 2020 11:35:45 GMT-0400 (Eastern Daylight Time)","Mozilla/5.0 (X11; CrOS aarch64 13310.93.0) AppleWebKit/537.36 (KHTML, like Gecko) Chrome/85.0.4183.133 Safari/537.36",98,"[0.9, 0.5, 0.1]","[0.8, 0.4, 0.2]","[u'black', u'red', u'blue']","[u'left', u'middle', u'right']","[0.8, 0.4, 0.2]","[u'medium', u'high', u'low']","black",49,"left","medium","True","False",400,5900,NA
"A1NR3COO33J99C","Sat Oct 03 2020 11:16:57 GMT-0400 (Eastern Daylight Time)","Sat Oct 03 2020 11:35:45 GMT-0400 (Eastern Daylight Time)","Mozilla/5.0 (X11; CrOS aarch64 13310.93.0) AppleWebKit/537.36 (KHTML, like Gecko) Chrome/85.0.4183.133 Safari/537.36",99,"[0.9, 0.5, 0.1]","[0.8, 0.4, 0.2]","[u'black', u'red', u'blue']","[u'left', u'middle', u'right']","[0.8, 0.4, 0.2]","[u'medium', u'high', u'low']","black",49,"left","medium","False","False",234,5850,NA
"A1NR3COO33J99C","Sat Oct 03 2020 11:16:57 GMT-0400 (Eastern Daylight Time)","Sat Oct 03 2020 11:35:45 GMT-0400 (Eastern Daylight Time)","Mozilla/5.0 (X11; CrOS aarch64 13310.93.0) AppleWebKit/537.36 (KHTML, like Gecko) Chrome/85.0.4183.133 Safari/537.36",100,"[0.9, 0.5, 0.1]","[0.8, 0.4, 0.2]","[u'black', u'red', u'blue']","[u'left', u'middle', u'right']","[0.8, 0.4, 0.2]","[u'medium', u'high', u'low']","blue",51,"right","low","False","False",278,5800,NA
"A1NR3COO33J99C","Sat Oct 03 2020 11:16:57 GMT-0400 (Eastern Daylight Time)","Sat Oct 03 2020 11:35:45 GMT-0400 (Eastern Daylight Time)","Mozilla/5.0 (X11; CrOS aarch64 13310.93.0) AppleWebKit/537.36 (KHTML, like Gecko) Chrome/85.0.4183.133 Safari/537.36",101,"[0.9, 0.5, 0.1]","[0.8, 0.4, 0.2]","[u'black', u'red', u'blue']","[u'left', u'middle', u'right']","[0.8, 0.4, 0.2]","[u'medium', u'high', u'low']","red",50,"middle","high","True","False",740,5900,NA
"A1NR3COO33J99C","Sat Oct 03 2020 11:16:57 GMT-0400 (Eastern Daylight Time)","Sat Oct 03 2020 11:35:45 GMT-0400 (Eastern Daylight Time)","Mozilla/5.0 (X11; CrOS aarch64 13310.93.0) AppleWebKit/537.36 (KHTML, like Gecko) Chrome/85.0.4183.133 Safari/537.36",102,"[0.9, 0.5, 0.1]","[0.8, 0.4, 0.2]","[u'black', u'red', u'blue']","[u'left', u'middle', u'right']","[0.8, 0.4, 0.2]","[u'medium', u'high', u'low']","red",50,"middle","high","True","False",355,6000,NA
"A1NR3COO33J99C","Sat Oct 03 2020 11:16:57 GMT-0400 (Eastern Daylight Time)","Sat Oct 03 2020 11:35:45 GMT-0400 (Eastern Daylight Time)","Mozilla/5.0 (X11; CrOS aarch64 13310.93.0) AppleWebKit/537.36 (KHTML, like Gecko) Chrome/85.0.4183.133 Safari/537.36",103,"[0.9, 0.5, 0.1]","[0.8, 0.4, 0.2]","[u'black', u'red', u'blue']","[u'left', u'middle', u'right']","[0.8, 0.4, 0.2]","[u'medium', u'high', u'low']","red",50,"middle","high","True","False",277,6100,NA
"A1NR3COO33J99C","Sat Oct 03 2020 11:16:57 GMT-0400 (Eastern Daylight Time)","Sat Oct 03 2020 11:35:45 GMT-0400 (Eastern Daylight Time)","Mozilla/5.0 (X11; CrOS aarch64 13310.93.0) AppleWebKit/537.36 (KHTML, like Gecko) Chrome/85.0.4183.133 Safari/537.36",104,"[0.9, 0.5, 0.1]","[0.8, 0.4, 0.2]","[u'black', u'red', u'blue']","[u'left', u'middle', u'right']","[0.8, 0.4, 0.2]","[u'medium', u'high', u'low']","red",50,"middle","high","True","False",418,6200,NA
"A1NR3COO33J99C","Sat Oct 03 2020 11:16:57 GMT-0400 (Eastern Daylight Time)","Sat Oct 03 2020 11:35:45 GMT-0400 (Eastern Daylight Time)","Mozilla/5.0 (X11; CrOS aarch64 13310.93.0) AppleWebKit/537.36 (KHTML, like Gecko) Chrome/85.0.4183.133 Safari/537.36",105,"[0.9, 0.5, 0.1]","[0.8, 0.4, 0.2]","[u'black', u'red', u'blue']","[u'left', u'middle', u'right']","[0.8, 0.4, 0.2]","[u'medium', u'high', u'low']","blue",51,"right","low","False","False",2448,6150,NA
"A1NR3COO33J99C","Sat Oct 03 2020 11:16:57 GMT-0400 (Eastern Daylight Time)","Sat Oct 03 2020 11:35:45 GMT-0400 (Eastern Daylight Time)","Mozilla/5.0 (X11; CrOS aarch64 13310.93.0) AppleWebKit/537.36 (KHTML, like Gecko) Chrome/85.0.4183.133 Safari/537.36",106,"[0.9, 0.5, 0.1]","[0.8, 0.4, 0.2]","[u'black', u'red', u'blue']","[u'left', u'middle', u'right']","[0.8, 0.4, 0.2]","[u'medium', u'high', u'low']","black",49,"left","medium","True","False",6959,6250,NA
"A1NR3COO33J99C","Sat Oct 03 2020 11:16:57 GMT-0400 (Eastern Daylight Time)","Sat Oct 03 2020 11:35:45 GMT-0400 (Eastern Daylight Time)","Mozilla/5.0 (X11; CrOS aarch64 13310.93.0) AppleWebKit/537.36 (KHTML, like Gecko) Chrome/85.0.4183.133 Safari/537.36",107,"[0.9, 0.5, 0.1]","[0.8, 0.4, 0.2]","[u'black', u'red', u'blue']","[u'left', u'middle', u'right']","[0.8, 0.4, 0.2]","[u'medium', u'high', u'low']","blue",51,"right","low","True","False",348,6350,NA
"A1NR3COO33J99C","Sat Oct 03 2020 11:16:57 GMT-0400 (Eastern Daylight Time)","Sat Oct 03 2020 11:35:45 GMT-0400 (Eastern Daylight Time)","Mozilla/5.0 (X11; CrOS aarch64 13310.93.0) AppleWebKit/537.36 (KHTML, like Gecko) Chrome/85.0.4183.133 Safari/537.36",108,"[0.9, 0.5, 0.1]","[0.8, 0.4, 0.2]","[u'black', u'red', u'blue']","[u'left', u'middle', u'right']","[0.8, 0.4, 0.2]","[u'medium', u'high', u'low']","black",49,"left","medium","True","False",294,6450,NA
"A1NR3COO33J99C","Sat Oct 03 2020 11:16:57 GMT-0400 (Eastern Daylight Time)","Sat Oct 03 2020 11:35:45 GMT-0400 (Eastern Daylight Time)","Mozilla/5.0 (X11; CrOS aarch64 13310.93.0) AppleWebKit/537.36 (KHTML, like Gecko) Chrome/85.0.4183.133 Safari/537.36",109,"[0.9, 0.5, 0.1]","[0.8, 0.4, 0.2]","[u'black', u'red', u'blue']","[u'left', u'middle', u'right']","[0.8, 0.4, 0.2]","[u'medium', u'high', u'low']","blue",51,"right","low","True","False",228,6550,NA
"A1NR3COO33J99C","Sat Oct 03 2020 11:16:57 GMT-0400 (Eastern Daylight Time)","Sat Oct 03 2020 11:35:45 GMT-0400 (Eastern Daylight Time)","Mozilla/5.0 (X11; CrOS aarch64 13310.93.0) AppleWebKit/537.36 (KHTML, like Gecko) Chrome/85.0.4183.133 Safari/537.36",110,"[0.9, 0.5, 0.1]","[0.8, 0.4, 0.2]","[u'black', u'red', u'blue']","[u'left', u'middle', u'right']","[0.8, 0.4, 0.2]","[u'medium', u'high', u'low']","black",49,"left","medium","False","False",403,6500,NA
"A1NR3COO33J99C","Sat Oct 03 2020 11:16:57 GMT-0400 (Eastern Daylight Time)","Sat Oct 03 2020 11:35:45 GMT-0400 (Eastern Daylight Time)","Mozilla/5.0 (X11; CrOS aarch64 13310.93.0) AppleWebKit/537.36 (KHTML, like Gecko) Chrome/85.0.4183.133 Safari/537.36",111,"[0.9, 0.5, 0.1]","[0.8, 0.4, 0.2]","[u'black', u'red', u'blue']","[u'left', u'middle', u'right']","[0.8, 0.4, 0.2]","[u'medium', u'high', u'low']","red",50,"middle","high","True","False",131,6600,NA
"A1NR3COO33J99C","Sat Oct 03 2020 11:16:57 GMT-0400 (Eastern Daylight Time)","Sat Oct 03 2020 11:35:45 GMT-0400 (Eastern Daylight Time)","Mozilla/5.0 (X11; CrOS aarch64 13310.93.0) AppleWebKit/537.36 (KHTML, like Gecko) Chrome/85.0.4183.133 Safari/537.36",112,"[0.9, 0.5, 0.1]","[0.8, 0.4, 0.2]","[u'black', u'red', u'blue']","[u'left', u'middle', u'right']","[0.8, 0.4, 0.2]","[u'medium', u'high', u'low']","blue",51,"right","low","False","False",278,6550,NA
"A1NR3COO33J99C","Sat Oct 03 2020 11:16:57 GMT-0400 (Eastern Daylight Time)","Sat Oct 03 2020 11:35:45 GMT-0400 (Eastern Daylight Time)","Mozilla/5.0 (X11; CrOS aarch64 13310.93.0) AppleWebKit/537.36 (KHTML, like Gecko) Chrome/85.0.4183.133 Safari/537.36",113,"[0.9, 0.5, 0.1]","[0.8, 0.4, 0.2]","[u'black', u'red', u'blue']","[u'left', u'middle', u'right']","[0.8, 0.4, 0.2]","[u'medium', u'high', u'low']","black",49,"left","medium","False","False",463,6500,NA
"A1NR3COO33J99C","Sat Oct 03 2020 11:16:57 GMT-0400 (Eastern Daylight Time)","Sat Oct 03 2020 11:35:45 GMT-0400 (Eastern Daylight Time)","Mozilla/5.0 (X11; CrOS aarch64 13310.93.0) AppleWebKit/537.36 (KHTML, like Gecko) Chrome/85.0.4183.133 Safari/537.36",114,"[0.9, 0.5, 0.1]","[0.8, 0.4, 0.2]","[u'black', u'red', u'blue']","[u'left', u'middle', u'right']","[0.8, 0.4, 0.2]","[u'medium', u'high', u'low']","red",50,"middle","high","True","False",275,6600,NA
"A1NR3COO33J99C","Sat Oct 03 2020 11:16:57 GMT-0400 (Eastern Daylight Time)","Sat Oct 03 2020 11:35:45 GMT-0400 (Eastern Daylight Time)","Mozilla/5.0 (X11; CrOS aarch64 13310.93.0) AppleWebKit/537.36 (KHTML, like Gecko) Chrome/85.0.4183.133 Safari/537.36",115,"[0.9, 0.5, 0.1]","[0.8, 0.4, 0.2]","[u'black', u'red', u'blue']","[u'left', u'middle', u'right']","[0.8, 0.4, 0.2]","[u'medium', u'high', u'low']","red",50,"middle","high","True","False",194,6700,NA
"A1NR3COO33J99C","Sat Oct 03 2020 11:16:57 GMT-0400 (Eastern Daylight Time)","Sat Oct 03 2020 11:35:45 GMT-0400 (Eastern Daylight Time)","Mozilla/5.0 (X11; CrOS aarch64 13310.93.0) AppleWebKit/537.36 (KHTML, like Gecko) Chrome/85.0.4183.133 Safari/537.36",116,"[0.9, 0.5, 0.1]","[0.8, 0.4, 0.2]","[u'black', u'red', u'blue']","[u'left', u'middle', u'right']","[0.8, 0.4, 0.2]","[u'medium', u'high', u'low']","red",50,"middle","high","False","False",327,6650,NA
"A1NR3COO33J99C","Sat Oct 03 2020 11:16:57 GMT-0400 (Eastern Daylight Time)","Sat Oct 03 2020 11:35:45 GMT-0400 (Eastern Daylight Time)","Mozilla/5.0 (X11; CrOS aarch64 13310.93.0) AppleWebKit/537.36 (KHTML, like Gecko) Chrome/85.0.4183.133 Safari/537.36",117,"[0.9, 0.5, 0.1]","[0.8, 0.4, 0.2]","[u'black', u'red', u'blue']","[u'left', u'middle', u'right']","[0.8, 0.4, 0.2]","[u'medium', u'high', u'low']","black",49,"left","medium","False","False",364,6600,NA
"A1NR3COO33J99C","Sat Oct 03 2020 11:16:57 GMT-0400 (Eastern Daylight Time)","Sat Oct 03 2020 11:35:45 GMT-0400 (Eastern Daylight Time)","Mozilla/5.0 (X11; CrOS aarch64 13310.93.0) AppleWebKit/537.36 (KHTML, like Gecko) Chrome/85.0.4183.133 Safari/537.36",118,"[0.9, 0.5, 0.1]","[0.8, 0.4, 0.2]","[u'black', u'red', u'blue']","[u'left', u'middle', u'right']","[0.8, 0.4, 0.2]","[u'medium', u'high', u'low']","blue",51,"right","low","False","False",268,6550,NA
"A1NR3COO33J99C","Sat Oct 03 2020 11:16:57 GMT-0400 (Eastern Daylight Time)","Sat Oct 03 2020 11:35:45 GMT-0400 (Eastern Daylight Time)","Mozilla/5.0 (X11; CrOS aarch64 13310.93.0) AppleWebKit/537.36 (KHTML, like Gecko) Chrome/85.0.4183.133 Safari/537.36",119,"[0.9, 0.5, 0.1]","[0.8, 0.4, 0.2]","[u'black', u'red', u'blue']","[u'left', u'middle', u'right']","[0.8, 0.4, 0.2]","[u'medium', u'high', u'low']","red",50,"middle","high","True","False",251,6650,NA
"A1NR3COO33J99C","Sat Oct 03 2020 11:16:57 GMT-0400 (Eastern Daylight Time)","Sat Oct 03 2020 11:35:45 GMT-0400 (Eastern Daylight Time)","Mozilla/5.0 (X11; CrOS aarch64 13310.93.0) AppleWebKit/537.36 (KHTML, like Gecko) Chrome/85.0.4183.133 Safari/537.36",120,"[0.9, 0.5, 0.1]","[0.8, 0.4, 0.2]","[u'black', u'red', u'blue']","[u'left', u'middle', u'right']","[0.8, 0.4, 0.2]","[u'medium', u'high', u'low']","red",50,"middle","high","True","False",291,6750,NA
"A1NR3COO33J99C","Sat Oct 03 2020 11:16:57 GMT-0400 (Eastern Daylight Time)","Sat Oct 03 2020 11:35:45 GMT-0400 (Eastern Daylight Time)","Mozilla/5.0 (X11; CrOS aarch64 13310.93.0) AppleWebKit/537.36 (KHTML, like Gecko) Chrome/85.0.4183.133 Safari/537.36",121,"[0.9, 0.5, 0.1]","[0.8, 0.4, 0.2]","[u'black', u'red', u'blue']","[u'left', u'middle', u'right']","[0.8, 0.4, 0.2]","[u'low', u'medium', u'high']","blue",51,"right","high","True","False",854,6850,NA
"A1NR3COO33J99C","Sat Oct 03 2020 11:16:57 GMT-0400 (Eastern Daylight Time)","Sat Oct 03 2020 11:35:45 GMT-0400 (Eastern Daylight Time)","Mozilla/5.0 (X11; CrOS aarch64 13310.93.0) AppleWebKit/537.36 (KHTML, like Gecko) Chrome/85.0.4183.133 Safari/537.36",122,"[0.9, 0.5, 0.1]","[0.8, 0.4, 0.2]","[u'black', u'red', u'blue']","[u'left', u'middle', u'right']","[0.8, 0.4, 0.2]","[u'low', u'medium', u'high']","blue",51,"right","high","True","False",501,6950,NA
"A1NR3COO33J99C","Sat Oct 03 2020 11:16:57 GMT-0400 (Eastern Daylight Time)","Sat Oct 03 2020 11:35:45 GMT-0400 (Eastern Daylight Time)","Mozilla/5.0 (X11; CrOS aarch64 13310.93.0) AppleWebKit/537.36 (KHTML, like Gecko) Chrome/85.0.4183.133 Safari/537.36",123,"[0.9, 0.5, 0.1]","[0.8, 0.4, 0.2]","[u'black', u'red', u'blue']","[u'left', u'middle', u'right']","[0.8, 0.4, 0.2]","[u'low', u'medium', u'high']","blue",51,"right","high","False","False",495,6900,NA
"A1NR3COO33J99C","Sat Oct 03 2020 11:16:57 GMT-0400 (Eastern Daylight Time)","Sat Oct 03 2020 11:35:45 GMT-0400 (Eastern Daylight Time)","Mozilla/5.0 (X11; CrOS aarch64 13310.93.0) AppleWebKit/537.36 (KHTML, like Gecko) Chrome/85.0.4183.133 Safari/537.36",124,"[0.9, 0.5, 0.1]","[0.8, 0.4, 0.2]","[u'black', u'red', u'blue']","[u'left', u'middle', u'right']","[0.8, 0.4, 0.2]","[u'low', u'medium', u'high']","red",50,"middle","medium","True","False",431,7000,NA
"A1NR3COO33J99C","Sat Oct 03 2020 11:16:57 GMT-0400 (Eastern Daylight Time)","Sat Oct 03 2020 11:35:45 GMT-0400 (Eastern Daylight Time)","Mozilla/5.0 (X11; CrOS aarch64 13310.93.0) AppleWebKit/537.36 (KHTML, like Gecko) Chrome/85.0.4183.133 Safari/537.36",125,"[0.9, 0.5, 0.1]","[0.8, 0.4, 0.2]","[u'black', u'red', u'blue']","[u'left', u'middle', u'right']","[0.8, 0.4, 0.2]","[u'low', u'medium', u'high']","red",50,"middle","medium","False","False",629,6950,NA
"A1NR3COO33J99C","Sat Oct 03 2020 11:16:57 GMT-0400 (Eastern Daylight Time)","Sat Oct 03 2020 11:35:45 GMT-0400 (Eastern Daylight Time)","Mozilla/5.0 (X11; CrOS aarch64 13310.93.0) AppleWebKit/537.36 (KHTML, like Gecko) Chrome/85.0.4183.133 Safari/537.36",126,"[0.9, 0.5, 0.1]","[0.8, 0.4, 0.2]","[u'black', u'red', u'blue']","[u'left', u'middle', u'right']","[0.8, 0.4, 0.2]","[u'low', u'medium', u'high']","black",49,"left","low","True","False",432,7050,NA
"A1NR3COO33J99C","Sat Oct 03 2020 11:16:57 GMT-0400 (Eastern Daylight Time)","Sat Oct 03 2020 11:35:45 GMT-0400 (Eastern Daylight Time)","Mozilla/5.0 (X11; CrOS aarch64 13310.93.0) AppleWebKit/537.36 (KHTML, like Gecko) Chrome/85.0.4183.133 Safari/537.36",127,"[0.9, 0.5, 0.1]","[0.8, 0.4, 0.2]","[u'black', u'red', u'blue']","[u'left', u'middle', u'right']","[0.8, 0.4, 0.2]","[u'low', u'medium', u'high']","black",49,"left","low","False","False",420,7000,NA
"A1NR3COO33J99C","Sat Oct 03 2020 11:16:57 GMT-0400 (Eastern Daylight Time)","Sat Oct 03 2020 11:35:45 GMT-0400 (Eastern Daylight Time)","Mozilla/5.0 (X11; CrOS aarch64 13310.93.0) AppleWebKit/537.36 (KHTML, like Gecko) Chrome/85.0.4183.133 Safari/537.36",128,"[0.9, 0.5, 0.1]","[0.8, 0.4, 0.2]","[u'black', u'red', u'blue']","[u'left', u'middle', u'right']","[0.8, 0.4, 0.2]","[u'low', u'medium', u'high']","blue",51,"right","high","True","False",425,7100,NA
"A1NR3COO33J99C","Sat Oct 03 2020 11:16:57 GMT-0400 (Eastern Daylight Time)","Sat Oct 03 2020 11:35:45 GMT-0400 (Eastern Daylight Time)","Mozilla/5.0 (X11; CrOS aarch64 13310.93.0) AppleWebKit/537.36 (KHTML, like Gecko) Chrome/85.0.4183.133 Safari/537.36",129,"[0.9, 0.5, 0.1]","[0.8, 0.4, 0.2]","[u'black', u'red', u'blue']","[u'left', u'middle', u'right']","[0.8, 0.4, 0.2]","[u'low', u'medium', u'high']","blue",51,"right","high","True","False",450,7200,NA
"A1NR3COO33J99C","Sat Oct 03 2020 11:16:57 GMT-0400 (Eastern Daylight Time)","Sat Oct 03 2020 11:35:45 GMT-0400 (Eastern Daylight Time)","Mozilla/5.0 (X11; CrOS aarch64 13310.93.0) AppleWebKit/537.36 (KHTML, like Gecko) Chrome/85.0.4183.133 Safari/537.36",130,"[0.9, 0.5, 0.1]","[0.8, 0.4, 0.2]","[u'black', u'red', u'blue']","[u'left', u'middle', u'right']","[0.8, 0.4, 0.2]","[u'low', u'medium', u'high']","blue",51,"right","high","True","False",1799,7300,NA
"A1NR3COO33J99C","Sat Oct 03 2020 11:16:57 GMT-0400 (Eastern Daylight Time)","Sat Oct 03 2020 11:35:45 GMT-0400 (Eastern Daylight Time)","Mozilla/5.0 (X11; CrOS aarch64 13310.93.0) AppleWebKit/537.36 (KHTML, like Gecko) Chrome/85.0.4183.133 Safari/537.36",131,"[0.9, 0.5, 0.1]","[0.8, 0.4, 0.2]","[u'black', u'red', u'blue']","[u'left', u'middle', u'right']","[0.8, 0.4, 0.2]","[u'low', u'medium', u'high']","blue",51,"right","high","True","False",4040,7400,NA
"A1NR3COO33J99C","Sat Oct 03 2020 11:16:57 GMT-0400 (Eastern Daylight Time)","Sat Oct 03 2020 11:35:45 GMT-0400 (Eastern Daylight Time)","Mozilla/5.0 (X11; CrOS aarch64 13310.93.0) AppleWebKit/537.36 (KHTML, like Gecko) Chrome/85.0.4183.133 Safari/537.36",132,"[0.9, 0.5, 0.1]","[0.8, 0.4, 0.2]","[u'black', u'red', u'blue']","[u'left', u'middle', u'right']","[0.8, 0.4, 0.2]","[u'low', u'medium', u'high']","blue",51,"right","high","False","False",495,7350,NA
"A1NR3COO33J99C","Sat Oct 03 2020 11:16:57 GMT-0400 (Eastern Daylight Time)","Sat Oct 03 2020 11:35:45 GMT-0400 (Eastern Daylight Time)","Mozilla/5.0 (X11; CrOS aarch64 13310.93.0) AppleWebKit/537.36 (KHTML, like Gecko) Chrome/85.0.4183.133 Safari/537.36",133,"[0.9, 0.5, 0.1]","[0.8, 0.4, 0.2]","[u'black', u'red', u'blue']","[u'left', u'middle', u'right']","[0.8, 0.4, 0.2]","[u'low', u'medium', u'high']","black",49,"left","low","False","False",137,7300,NA
"A1NR3COO33J99C","Sat Oct 03 2020 11:16:57 GMT-0400 (Eastern Daylight Time)","Sat Oct 03 2020 11:35:45 GMT-0400 (Eastern Daylight Time)","Mozilla/5.0 (X11; CrOS aarch64 13310.93.0) AppleWebKit/537.36 (KHTML, like Gecko) Chrome/85.0.4183.133 Safari/537.36",134,"[0.9, 0.5, 0.1]","[0.8, 0.4, 0.2]","[u'black', u'red', u'blue']","[u'left', u'middle', u'right']","[0.8, 0.4, 0.2]","[u'low', u'medium', u'high']","red",50,"middle","medium","False","False",15,7250,NA
"A1NR3COO33J99C","Sat Oct 03 2020 11:16:57 GMT-0400 (Eastern Daylight Time)","Sat Oct 03 2020 11:35:45 GMT-0400 (Eastern Daylight Time)","Mozilla/5.0 (X11; CrOS aarch64 13310.93.0) AppleWebKit/537.36 (KHTML, like Gecko) Chrome/85.0.4183.133 Safari/537.36",135,"[0.9, 0.5, 0.1]","[0.8, 0.4, 0.2]","[u'black', u'red', u'blue']","[u'left', u'middle', u'right']","[0.8, 0.4, 0.2]","[u'low', u'medium', u'high']","blue",51,"right","high","True","False",394,7350,NA
"A1NR3COO33J99C","Sat Oct 03 2020 11:16:57 GMT-0400 (Eastern Daylight Time)","Sat Oct 03 2020 11:35:45 GMT-0400 (Eastern Daylight Time)","Mozilla/5.0 (X11; CrOS aarch64 13310.93.0) AppleWebKit/537.36 (KHTML, like Gecko) Chrome/85.0.4183.133 Safari/537.36",136,"[0.9, 0.5, 0.1]","[0.8, 0.4, 0.2]","[u'black', u'red', u'blue']","[u'left', u'middle', u'right']","[0.8, 0.4, 0.2]","[u'low', u'medium', u'high']","black",49,"left","low","False","False",3705,7300,NA
"A1NR3COO33J99C","Sat Oct 03 2020 11:16:57 GMT-0400 (Eastern Daylight Time)","Sat Oct 03 2020 11:35:45 GMT-0400 (Eastern Daylight Time)","Mozilla/5.0 (X11; CrOS aarch64 13310.93.0) AppleWebKit/537.36 (KHTML, like Gecko) Chrome/85.0.4183.133 Safari/537.36",137,"[0.9, 0.5, 0.1]","[0.8, 0.4, 0.2]","[u'black', u'red', u'blue']","[u'left', u'middle', u'right']","[0.8, 0.4, 0.2]","[u'low', u'medium', u'high']","blue",51,"right","high","False","False",992,7250,NA
"A1NR3COO33J99C","Sat Oct 03 2020 11:16:57 GMT-0400 (Eastern Daylight Time)","Sat Oct 03 2020 11:35:45 GMT-0400 (Eastern Daylight Time)","Mozilla/5.0 (X11; CrOS aarch64 13310.93.0) AppleWebKit/537.36 (KHTML, like Gecko) Chrome/85.0.4183.133 Safari/537.36",138,"[0.9, 0.5, 0.1]","[0.8, 0.4, 0.2]","[u'black', u'red', u'blue']","[u'left', u'middle', u'right']","[0.8, 0.4, 0.2]","[u'low', u'medium', u'high']","red",50,"middle","medium","True","False",1349,7350,NA
"A1NR3COO33J99C","Sat Oct 03 2020 11:16:57 GMT-0400 (Eastern Daylight Time)","Sat Oct 03 2020 11:35:45 GMT-0400 (Eastern Daylight Time)","Mozilla/5.0 (X11; CrOS aarch64 13310.93.0) AppleWebKit/537.36 (KHTML, like Gecko) Chrome/85.0.4183.133 Safari/537.36",139,"[0.9, 0.5, 0.1]","[0.8, 0.4, 0.2]","[u'black', u'red', u'blue']","[u'left', u'middle', u'right']","[0.8, 0.4, 0.2]","[u'low', u'medium', u'high']","red",50,"middle","medium","False","False",705,7300,NA
"A1NR3COO33J99C","Sat Oct 03 2020 11:16:57 GMT-0400 (Eastern Daylight Time)","Sat Oct 03 2020 11:35:45 GMT-0400 (Eastern Daylight Time)","Mozilla/5.0 (X11; CrOS aarch64 13310.93.0) AppleWebKit/537.36 (KHTML, like Gecko) Chrome/85.0.4183.133 Safari/537.36",140,"[0.9, 0.5, 0.1]","[0.8, 0.4, 0.2]","[u'black', u'red', u'blue']","[u'left', u'middle', u'right']","[0.8, 0.4, 0.2]","[u'low', u'medium', u'high']","black",49,"left","low","False","False",579,7250,NA
"A1NR3COO33J99C","Sat Oct 03 2020 11:16:57 GMT-0400 (Eastern Daylight Time)","Sat Oct 03 2020 11:35:45 GMT-0400 (Eastern Daylight Time)","Mozilla/5.0 (X11; CrOS aarch64 13310.93.0) AppleWebKit/537.36 (KHTML, like Gecko) Chrome/85.0.4183.133 Safari/537.36",141,"[0.9, 0.5, 0.1]","[0.8, 0.4, 0.2]","[u'black', u'red', u'blue']","[u'left', u'middle', u'right']","[0.8, 0.4, 0.2]","[u'low', u'medium', u'high']","blue",51,"right","high","True","False",486,7350,NA
"A1NR3COO33J99C","Sat Oct 03 2020 11:16:57 GMT-0400 (Eastern Daylight Time)","Sat Oct 03 2020 11:35:45 GMT-0400 (Eastern Daylight Time)","Mozilla/5.0 (X11; CrOS aarch64 13310.93.0) AppleWebKit/537.36 (KHTML, like Gecko) Chrome/85.0.4183.133 Safari/537.36",142,"[0.9, 0.5, 0.1]","[0.8, 0.4, 0.2]","[u'black', u'red', u'blue']","[u'left', u'middle', u'right']","[0.8, 0.4, 0.2]","[u'low', u'medium', u'high']","black",49,"left","low","False","False",583,7300,NA
"A1NR3COO33J99C","Sat Oct 03 2020 11:16:57 GMT-0400 (Eastern Daylight Time)","Sat Oct 03 2020 11:35:45 GMT-0400 (Eastern Daylight Time)","Mozilla/5.0 (X11; CrOS aarch64 13310.93.0) AppleWebKit/537.36 (KHTML, like Gecko) Chrome/85.0.4183.133 Safari/537.36",143,"[0.9, 0.5, 0.1]","[0.8, 0.4, 0.2]","[u'black', u'red', u'blue']","[u'left', u'middle', u'right']","[0.8, 0.4, 0.2]","[u'low', u'medium', u'high']","red",50,"middle","medium","True","False",1051,7400,NA
"A1NR3COO33J99C","Sat Oct 03 2020 11:16:57 GMT-0400 (Eastern Daylight Time)","Sat Oct 03 2020 11:35:45 GMT-0400 (Eastern Daylight Time)","Mozilla/5.0 (X11; CrOS aarch64 13310.93.0) AppleWebKit/537.36 (KHTML, like Gecko) Chrome/85.0.4183.133 Safari/537.36",144,"[0.9, 0.5, 0.1]","[0.8, 0.4, 0.2]","[u'black', u'red', u'blue']","[u'left', u'middle', u'right']","[0.8, 0.4, 0.2]","[u'low', u'medium', u'high']","red",50,"middle","medium","False","False",1063,7350,NA
"A1NR3COO33J99C","Sat Oct 03 2020 11:16:57 GMT-0400 (Eastern Daylight Time)","Sat Oct 03 2020 11:35:45 GMT-0400 (Eastern Daylight Time)","Mozilla/5.0 (X11; CrOS aarch64 13310.93.0) AppleWebKit/537.36 (KHTML, like Gecko) Chrome/85.0.4183.133 Safari/537.36",145,"[0.9, 0.5, 0.1]","[0.8, 0.4, 0.2]","[u'black', u'red', u'blue']","[u'left', u'middle', u'right']","[0.8, 0.4, 0.2]","[u'low', u'medium', u'high']","blue",51,"right","high","True","False",902,7450,NA
"A1NR3COO33J99C","Sat Oct 03 2020 11:16:57 GMT-0400 (Eastern Daylight Time)","Sat Oct 03 2020 11:35:45 GMT-0400 (Eastern Daylight Time)","Mozilla/5.0 (X11; CrOS aarch64 13310.93.0) AppleWebKit/537.36 (KHTML, like Gecko) Chrome/85.0.4183.133 Safari/537.36",146,"[0.9, 0.5, 0.1]","[0.8, 0.4, 0.2]","[u'black', u'red', u'blue']","[u'left', u'middle', u'right']","[0.8, 0.4, 0.2]","[u'low', u'medium', u'high']","blue",51,"right","high","True","False",2402,7550,NA
"A1NR3COO33J99C","Sat Oct 03 2020 11:16:57 GMT-0400 (Eastern Daylight Time)","Sat Oct 03 2020 11:35:45 GMT-0400 (Eastern Daylight Time)","Mozilla/5.0 (X11; CrOS aarch64 13310.93.0) AppleWebKit/537.36 (KHTML, like Gecko) Chrome/85.0.4183.133 Safari/537.36",147,"[0.9, 0.5, 0.1]","[0.8, 0.4, 0.2]","[u'black', u'red', u'blue']","[u'left', u'middle', u'right']","[0.8, 0.4, 0.2]","[u'low', u'medium', u'high']","black",49,"left","low","False","False",847,7500,NA
"A1NR3COO33J99C","Sat Oct 03 2020 11:16:57 GMT-0400 (Eastern Daylight Time)","Sat Oct 03 2020 11:35:45 GMT-0400 (Eastern Daylight Time)","Mozilla/5.0 (X11; CrOS aarch64 13310.93.0) AppleWebKit/537.36 (KHTML, like Gecko) Chrome/85.0.4183.133 Safari/537.36",148,"[0.9, 0.5, 0.1]","[0.8, 0.4, 0.2]","[u'black', u'red', u'blue']","[u'left', u'middle', u'right']","[0.8, 0.4, 0.2]","[u'low', u'medium', u'high']","red",50,"middle","medium","False","False",2159,7450,NA
"A1NR3COO33J99C","Sat Oct 03 2020 11:16:57 GMT-0400 (Eastern Daylight Time)","Sat Oct 03 2020 11:35:45 GMT-0400 (Eastern Daylight Time)","Mozilla/5.0 (X11; CrOS aarch64 13310.93.0) AppleWebKit/537.36 (KHTML, like Gecko) Chrome/85.0.4183.133 Safari/537.36",149,"[0.9, 0.5, 0.1]","[0.8, 0.4, 0.2]","[u'black', u'red', u'blue']","[u'left', u'middle', u'right']","[0.8, 0.4, 0.2]","[u'low', u'medium', u'high']","blue",51,"right","high","True","False",255,7550,NA
"A1NR3COO33J99C","Sat Oct 03 2020 11:16:57 GMT-0400 (Eastern Daylight Time)","Sat Oct 03 2020 11:35:45 GMT-0400 (Eastern Daylight Time)","Mozilla/5.0 (X11; CrOS aarch64 13310.93.0) AppleWebKit/537.36 (KHTML, like Gecko) Chrome/85.0.4183.133 Safari/537.36",150,"[0.9, 0.5, 0.1]","[0.8, 0.4, 0.2]","[u'black', u'red', u'blue']","[u'left', u'middle', u'right']","[0.8, 0.4, 0.2]","[u'low', u'medium', u'high']","blue",51,"right","high","True","False",298,7650,NA
"A1NR3COO33J99C","Sat Oct 03 2020 11:16:57 GMT-0400 (Eastern Daylight Time)","Sat Oct 03 2020 11:35:45 GMT-0400 (Eastern Daylight Time)","Mozilla/5.0 (X11; CrOS aarch64 13310.93.0) AppleWebKit/537.36 (KHTML, like Gecko) Chrome/85.0.4183.133 Safari/537.36",151,"[0.9, 0.5, 0.1]","[0.8, 0.4, 0.2]","[u'black', u'red', u'blue']","[u'left', u'middle', u'right']","[0.8, 0.4, 0.2]","[u'low', u'medium', u'high']","blue",51,"right","high","True","False",327,7750,NA
"A1NR3COO33J99C","Sat Oct 03 2020 11:16:57 GMT-0400 (Eastern Daylight Time)","Sat Oct 03 2020 11:35:45 GMT-0400 (Eastern Daylight Time)","Mozilla/5.0 (X11; CrOS aarch64 13310.93.0) AppleWebKit/537.36 (KHTML, like Gecko) Chrome/85.0.4183.133 Safari/537.36",152,"[0.9, 0.5, 0.1]","[0.8, 0.4, 0.2]","[u'black', u'red', u'blue']","[u'left', u'middle', u'right']","[0.8, 0.4, 0.2]","[u'low', u'medium', u'high']","blue",51,"right","high","False","False",262,7700,NA
"A1NR3COO33J99C","Sat Oct 03 2020 11:16:57 GMT-0400 (Eastern Daylight Time)","Sat Oct 03 2020 11:35:45 GMT-0400 (Eastern Daylight Time)","Mozilla/5.0 (X11; CrOS aarch64 13310.93.0) AppleWebKit/537.36 (KHTML, like Gecko) Chrome/85.0.4183.133 Safari/537.36",153,"[0.9, 0.5, 0.1]","[0.8, 0.4, 0.2]","[u'black', u'red', u'blue']","[u'left', u'middle', u'right']","[0.8, 0.4, 0.2]","[u'low', u'medium', u'high']","black",49,"left","low","False","False",70,7650,NA
"A1NR3COO33J99C","Sat Oct 03 2020 11:16:57 GMT-0400 (Eastern Daylight Time)","Sat Oct 03 2020 11:35:45 GMT-0400 (Eastern Daylight Time)","Mozilla/5.0 (X11; CrOS aarch64 13310.93.0) AppleWebKit/537.36 (KHTML, like Gecko) Chrome/85.0.4183.133 Safari/537.36",154,"[0.9, 0.5, 0.1]","[0.8, 0.4, 0.2]","[u'black', u'red', u'blue']","[u'left', u'middle', u'right']","[0.8, 0.4, 0.2]","[u'low', u'medium', u'high']","red",50,"middle","medium","True","False",309,7750,NA
"A1NR3COO33J99C","Sat Oct 03 2020 11:16:57 GMT-0400 (Eastern Daylight Time)","Sat Oct 03 2020 11:35:45 GMT-0400 (Eastern Daylight Time)","Mozilla/5.0 (X11; CrOS aarch64 13310.93.0) AppleWebKit/537.36 (KHTML, like Gecko) Chrome/85.0.4183.133 Safari/537.36",155,"[0.9, 0.5, 0.1]","[0.8, 0.4, 0.2]","[u'black', u'red', u'blue']","[u'left', u'middle', u'right']","[0.8, 0.4, 0.2]","[u'low', u'medium', u'high']","red",50,"middle","medium","False","False",280,7700,NA
"A1NR3COO33J99C","Sat Oct 03 2020 11:16:57 GMT-0400 (Eastern Daylight Time)","Sat Oct 03 2020 11:35:45 GMT-0400 (Eastern Daylight Time)","Mozilla/5.0 (X11; CrOS aarch64 13310.93.0) AppleWebKit/537.36 (KHTML, like Gecko) Chrome/85.0.4183.133 Safari/537.36",156,"[0.9, 0.5, 0.1]","[0.8, 0.4, 0.2]","[u'black', u'red', u'blue']","[u'left', u'middle', u'right']","[0.8, 0.4, 0.2]","[u'low', u'medium', u'high']","blue",51,"right","high","True","False",161,7800,NA
"A1NR3COO33J99C","Sat Oct 03 2020 11:16:57 GMT-0400 (Eastern Daylight Time)","Sat Oct 03 2020 11:35:45 GMT-0400 (Eastern Daylight Time)","Mozilla/5.0 (X11; CrOS aarch64 13310.93.0) AppleWebKit/537.36 (KHTML, like Gecko) Chrome/85.0.4183.133 Safari/537.36",157,"[0.9, 0.5, 0.1]","[0.8, 0.4, 0.2]","[u'black', u'red', u'blue']","[u'left', u'middle', u'right']","[0.8, 0.4, 0.2]","[u'low', u'medium', u'high']","blue",51,"right","high","True","False",189,7900,NA
"A1NR3COO33J99C","Sat Oct 03 2020 11:16:57 GMT-0400 (Eastern Daylight Time)","Sat Oct 03 2020 11:35:45 GMT-0400 (Eastern Daylight Time)","Mozilla/5.0 (X11; CrOS aarch64 13310.93.0) AppleWebKit/537.36 (KHTML, like Gecko) Chrome/85.0.4183.133 Safari/537.36",158,"[0.9, 0.5, 0.1]","[0.8, 0.4, 0.2]","[u'black', u'red', u'blue']","[u'left', u'middle', u'right']","[0.8, 0.4, 0.2]","[u'low', u'medium', u'high']","blue",51,"right","high","True","False",261,8000,NA
"A1NR3COO33J99C","Sat Oct 03 2020 11:16:57 GMT-0400 (Eastern Daylight Time)","Sat Oct 03 2020 11:35:45 GMT-0400 (Eastern Daylight Time)","Mozilla/5.0 (X11; CrOS aarch64 13310.93.0) AppleWebKit/537.36 (KHTML, like Gecko) Chrome/85.0.4183.133 Safari/537.36",159,"[0.9, 0.5, 0.1]","[0.8, 0.4, 0.2]","[u'black', u'red', u'blue']","[u'left', u'middle', u'right']","[0.8, 0.4, 0.2]","[u'low', u'medium', u'high']","blue",51,"right","high","True","False",238,8100,NA
"A1NR3COO33J99C","Sat Oct 03 2020 11:16:57 GMT-0400 (Eastern Daylight Time)","Sat Oct 03 2020 11:35:45 GMT-0400 (Eastern Daylight Time)","Mozilla/5.0 (X11; CrOS aarch64 13310.93.0) AppleWebKit/537.36 (KHTML, like Gecko) Chrome/85.0.4183.133 Safari/537.36",160,"[0.9, 0.5, 0.1]","[0.8, 0.4, 0.2]","[u'black', u'red', u'blue']","[u'left', u'middle', u'right']","[0.8, 0.4, 0.2]","[u'low', u'medium', u'high']","blue",51,"right","high","True","False",288,8200,NA
