"src_subject_id","start_time","end_time","browser","index","first_half_probabilities","second_half_probabilities","deck_color","deck_position","deck_probabilities","deck_contingencies","response_color","key_press","response_position","response_probability","reward_type","trial_type","rt","reward_tally","exclusion_reason"
"AQV468FB908WI","Sat Oct 03 2020 10:15:34 GMT-0500 (Central Daylight Time)","Sat Oct 03 2020 10:44:15 GMT-0500 (Central Daylight Time)","Mozilla/5.0 (Windows NT 10.0; Win64; x64) AppleWebKit/537.36 (KHTML, like Gecko) Chrome/85.0.4183.121 Safari/537.36",1,"[0.9, 0.5, 0.1]","[0.8, 0.4, 0.2]","[u'blue', u'black', u'red']","[u'left', u'middle', u'right']","[0.9, 0.5, 0.1]","[u'high', u'medium', u'low']","red",51,"right","low","True","False",910,100,NA
"AQV468FB908WI","Sat Oct 03 2020 10:15:34 GMT-0500 (Central Daylight Time)","Sat Oct 03 2020 10:44:15 GMT-0500 (Central Daylight Time)","Mozilla/5.0 (Windows NT 10.0; Win64; x64) AppleWebKit/537.36 (KHTML, like Gecko) Chrome/85.0.4183.121 Safari/537.36",2,"[0.9, 0.5, 0.1]","[0.8, 0.4, 0.2]","[u'blue', u'black', u'red']","[u'left', u'middle', u'right']","[0.9, 0.5, 0.1]","[u'high', u'medium', u'low']","red",51,"right","low","False","False",400,50,NA
"AQV468FB908WI","Sat Oct 03 2020 10:15:34 GMT-0500 (Central Daylight Time)","Sat Oct 03 2020 10:44:15 GMT-0500 (Central Daylight Time)","Mozilla/5.0 (Windows NT 10.0; Win64; x64) AppleWebKit/537.36 (KHTML, like Gecko) Chrome/85.0.4183.121 Safari/537.36",3,"[0.9, 0.5, 0.1]","[0.8, 0.4, 0.2]","[u'blue', u'black', u'red']","[u'left', u'middle', u'right']","[0.9, 0.5, 0.1]","[u'high', u'medium', u'low']","red",51,"right","low","False","False",301,0,NA
"AQV468FB908WI","Sat Oct 03 2020 10:15:34 GMT-0500 (Central Daylight Time)","Sat Oct 03 2020 10:44:15 GMT-0500 (Central Daylight Time)","Mozilla/5.0 (Windows NT 10.0; Win64; x64) AppleWebKit/537.36 (KHTML, like Gecko) Chrome/85.0.4183.121 Safari/537.36",4,"[0.9, 0.5, 0.1]","[0.8, 0.4, 0.2]","[u'blue', u'black', u'red']","[u'left', u'middle', u'right']","[0.9, 0.5, 0.1]","[u'high', u'medium', u'low']","blue",49,"left","high","True","False",233,100,NA
"AQV468FB908WI","Sat Oct 03 2020 10:15:34 GMT-0500 (Central Daylight Time)","Sat Oct 03 2020 10:44:15 GMT-0500 (Central Daylight Time)","Mozilla/5.0 (Windows NT 10.0; Win64; x64) AppleWebKit/537.36 (KHTML, like Gecko) Chrome/85.0.4183.121 Safari/537.36",5,"[0.9, 0.5, 0.1]","[0.8, 0.4, 0.2]","[u'blue', u'black', u'red']","[u'left', u'middle', u'right']","[0.9, 0.5, 0.1]","[u'high', u'medium', u'low']","blue",49,"left","high","True","False",252,200,NA
"AQV468FB908WI","Sat Oct 03 2020 10:15:34 GMT-0500 (Central Daylight Time)","Sat Oct 03 2020 10:44:15 GMT-0500 (Central Daylight Time)","Mozilla/5.0 (Windows NT 10.0; Win64; x64) AppleWebKit/537.36 (KHTML, like Gecko) Chrome/85.0.4183.121 Safari/537.36",6,"[0.9, 0.5, 0.1]","[0.8, 0.4, 0.2]","[u'blue', u'black', u'red']","[u'left', u'middle', u'right']","[0.9, 0.5, 0.1]","[u'high', u'medium', u'low']","blue",49,"left","high","True","False",277,300,NA
"AQV468FB908WI","Sat Oct 03 2020 10:15:34 GMT-0500 (Central Daylight Time)","Sat Oct 03 2020 10:44:15 GMT-0500 (Central Daylight Time)","Mozilla/5.0 (Windows NT 10.0; Win64; x64) AppleWebKit/537.36 (KHTML, like Gecko) Chrome/85.0.4183.121 Safari/537.36",7,"[0.9, 0.5, 0.1]","[0.8, 0.4, 0.2]","[u'blue', u'black', u'red']","[u'left', u'middle', u'right']","[0.9, 0.5, 0.1]","[u'high', u'medium', u'low']","blue",49,"left","high","True","False",259,400,NA
"AQV468FB908WI","Sat Oct 03 2020 10:15:34 GMT-0500 (Central Daylight Time)","Sat Oct 03 2020 10:44:15 GMT-0500 (Central Daylight Time)","Mozilla/5.0 (Windows NT 10.0; Win64; x64) AppleWebKit/537.36 (KHTML, like Gecko) Chrome/85.0.4183.121 Safari/537.36",8,"[0.9, 0.5, 0.1]","[0.8, 0.4, 0.2]","[u'blue', u'black', u'red']","[u'left', u'middle', u'right']","[0.9, 0.5, 0.1]","[u'high', u'medium', u'low']","blue",49,"left","high","True","False",239,500,NA
"AQV468FB908WI","Sat Oct 03 2020 10:15:34 GMT-0500 (Central Daylight Time)","Sat Oct 03 2020 10:44:15 GMT-0500 (Central Daylight Time)","Mozilla/5.0 (Windows NT 10.0; Win64; x64) AppleWebKit/537.36 (KHTML, like Gecko) Chrome/85.0.4183.121 Safari/537.36",9,"[0.9, 0.5, 0.1]","[0.8, 0.4, 0.2]","[u'blue', u'black', u'red']","[u'left', u'middle', u'right']","[0.9, 0.5, 0.1]","[u'high', u'medium', u'low']","blue",49,"left","high","True","False",286,600,NA
"AQV468FB908WI","Sat Oct 03 2020 10:15:34 GMT-0500 (Central Daylight Time)","Sat Oct 03 2020 10:44:15 GMT-0500 (Central Daylight Time)","Mozilla/5.0 (Windows NT 10.0; Win64; x64) AppleWebKit/537.36 (KHTML, like Gecko) Chrome/85.0.4183.121 Safari/537.36",10,"[0.9, 0.5, 0.1]","[0.8, 0.4, 0.2]","[u'blue', u'black', u'red']","[u'left', u'middle', u'right']","[0.9, 0.5, 0.1]","[u'high', u'medium', u'low']","blue",49,"left","high","True","False",254,700,NA
"AQV468FB908WI","Sat Oct 03 2020 10:15:34 GMT-0500 (Central Daylight Time)","Sat Oct 03 2020 10:44:15 GMT-0500 (Central Daylight Time)","Mozilla/5.0 (Windows NT 10.0; Win64; x64) AppleWebKit/537.36 (KHTML, like Gecko) Chrome/85.0.4183.121 Safari/537.36",11,"[0.9, 0.5, 0.1]","[0.8, 0.4, 0.2]","[u'blue', u'black', u'red']","[u'left', u'middle', u'right']","[0.9, 0.5, 0.1]","[u'high', u'medium', u'low']","blue",49,"left","high","True","False",231,800,NA
"AQV468FB908WI","Sat Oct 03 2020 10:15:34 GMT-0500 (Central Daylight Time)","Sat Oct 03 2020 10:44:15 GMT-0500 (Central Daylight Time)","Mozilla/5.0 (Windows NT 10.0; Win64; x64) AppleWebKit/537.36 (KHTML, like Gecko) Chrome/85.0.4183.121 Safari/537.36",12,"[0.9, 0.5, 0.1]","[0.8, 0.4, 0.2]","[u'blue', u'black', u'red']","[u'left', u'middle', u'right']","[0.9, 0.5, 0.1]","[u'high', u'medium', u'low']","blue",49,"left","high","True","True",236,900,NA
"AQV468FB908WI","Sat Oct 03 2020 10:15:34 GMT-0500 (Central Daylight Time)","Sat Oct 03 2020 10:44:15 GMT-0500 (Central Daylight Time)","Mozilla/5.0 (Windows NT 10.0; Win64; x64) AppleWebKit/537.36 (KHTML, like Gecko) Chrome/85.0.4183.121 Safari/537.36",13,"[0.9, 0.5, 0.1]","[0.8, 0.4, 0.2]","[u'blue', u'black', u'red']","[u'left', u'middle', u'right']","[0.9, 0.5, 0.1]","[u'medium', u'low', u'high']","blue",49,"left","medium","False","False",284,850,NA
"AQV468FB908WI","Sat Oct 03 2020 10:15:34 GMT-0500 (Central Daylight Time)","Sat Oct 03 2020 10:44:15 GMT-0500 (Central Daylight Time)","Mozilla/5.0 (Windows NT 10.0; Win64; x64) AppleWebKit/537.36 (KHTML, like Gecko) Chrome/85.0.4183.121 Safari/537.36",14,"[0.9, 0.5, 0.1]","[0.8, 0.4, 0.2]","[u'blue', u'black', u'red']","[u'left', u'middle', u'right']","[0.9, 0.5, 0.1]","[u'medium', u'low', u'high']","blue",49,"left","medium","True","False",209,950,NA
"AQV468FB908WI","Sat Oct 03 2020 10:15:34 GMT-0500 (Central Daylight Time)","Sat Oct 03 2020 10:44:15 GMT-0500 (Central Daylight Time)","Mozilla/5.0 (Windows NT 10.0; Win64; x64) AppleWebKit/537.36 (KHTML, like Gecko) Chrome/85.0.4183.121 Safari/537.36",15,"[0.9, 0.5, 0.1]","[0.8, 0.4, 0.2]","[u'blue', u'black', u'red']","[u'left', u'middle', u'right']","[0.9, 0.5, 0.1]","[u'medium', u'low', u'high']","blue",49,"left","medium","False","False",233,900,NA
"AQV468FB908WI","Sat Oct 03 2020 10:15:34 GMT-0500 (Central Daylight Time)","Sat Oct 03 2020 10:44:15 GMT-0500 (Central Daylight Time)","Mozilla/5.0 (Windows NT 10.0; Win64; x64) AppleWebKit/537.36 (KHTML, like Gecko) Chrome/85.0.4183.121 Safari/537.36",16,"[0.9, 0.5, 0.1]","[0.8, 0.4, 0.2]","[u'blue', u'black', u'red']","[u'left', u'middle', u'right']","[0.9, 0.5, 0.1]","[u'medium', u'low', u'high']","black",50,"middle","low","True","False",238,1000,NA
"AQV468FB908WI","Sat Oct 03 2020 10:15:34 GMT-0500 (Central Daylight Time)","Sat Oct 03 2020 10:44:15 GMT-0500 (Central Daylight Time)","Mozilla/5.0 (Windows NT 10.0; Win64; x64) AppleWebKit/537.36 (KHTML, like Gecko) Chrome/85.0.4183.121 Safari/537.36",17,"[0.9, 0.5, 0.1]","[0.8, 0.4, 0.2]","[u'blue', u'black', u'red']","[u'left', u'middle', u'right']","[0.9, 0.5, 0.1]","[u'medium', u'low', u'high']","black",50,"middle","low","True","False",231,1100,NA
"AQV468FB908WI","Sat Oct 03 2020 10:15:34 GMT-0500 (Central Daylight Time)","Sat Oct 03 2020 10:44:15 GMT-0500 (Central Daylight Time)","Mozilla/5.0 (Windows NT 10.0; Win64; x64) AppleWebKit/537.36 (KHTML, like Gecko) Chrome/85.0.4183.121 Safari/537.36",18,"[0.9, 0.5, 0.1]","[0.8, 0.4, 0.2]","[u'blue', u'black', u'red']","[u'left', u'middle', u'right']","[0.9, 0.5, 0.1]","[u'medium', u'low', u'high']","black",50,"middle","low","False","False",246,1050,NA
"AQV468FB908WI","Sat Oct 03 2020 10:15:34 GMT-0500 (Central Daylight Time)","Sat Oct 03 2020 10:44:15 GMT-0500 (Central Daylight Time)","Mozilla/5.0 (Windows NT 10.0; Win64; x64) AppleWebKit/537.36 (KHTML, like Gecko) Chrome/85.0.4183.121 Safari/537.36",19,"[0.9, 0.5, 0.1]","[0.8, 0.4, 0.2]","[u'blue', u'black', u'red']","[u'left', u'middle', u'right']","[0.9, 0.5, 0.1]","[u'medium', u'low', u'high']","black",50,"middle","low","False","False",159,1000,NA
"AQV468FB908WI","Sat Oct 03 2020 10:15:34 GMT-0500 (Central Daylight Time)","Sat Oct 03 2020 10:44:15 GMT-0500 (Central Daylight Time)","Mozilla/5.0 (Windows NT 10.0; Win64; x64) AppleWebKit/537.36 (KHTML, like Gecko) Chrome/85.0.4183.121 Safari/537.36",20,"[0.9, 0.5, 0.1]","[0.8, 0.4, 0.2]","[u'blue', u'black', u'red']","[u'left', u'middle', u'right']","[0.9, 0.5, 0.1]","[u'medium', u'low', u'high']","red",51,"right","high","True","False",265,1100,NA
"AQV468FB908WI","Sat Oct 03 2020 10:15:34 GMT-0500 (Central Daylight Time)","Sat Oct 03 2020 10:44:15 GMT-0500 (Central Daylight Time)","Mozilla/5.0 (Windows NT 10.0; Win64; x64) AppleWebKit/537.36 (KHTML, like Gecko) Chrome/85.0.4183.121 Safari/537.36",21,"[0.9, 0.5, 0.1]","[0.8, 0.4, 0.2]","[u'blue', u'black', u'red']","[u'left', u'middle', u'right']","[0.9, 0.5, 0.1]","[u'medium', u'low', u'high']","red",51,"right","high","True","False",256,1200,NA
"AQV468FB908WI","Sat Oct 03 2020 10:15:34 GMT-0500 (Central Daylight Time)","Sat Oct 03 2020 10:44:15 GMT-0500 (Central Daylight Time)","Mozilla/5.0 (Windows NT 10.0; Win64; x64) AppleWebKit/537.36 (KHTML, like Gecko) Chrome/85.0.4183.121 Safari/537.36",22,"[0.9, 0.5, 0.1]","[0.8, 0.4, 0.2]","[u'blue', u'black', u'red']","[u'left', u'middle', u'right']","[0.9, 0.5, 0.1]","[u'medium', u'low', u'high']","red",51,"right","high","True","False",368,1300,NA
"AQV468FB908WI","Sat Oct 03 2020 10:15:34 GMT-0500 (Central Daylight Time)","Sat Oct 03 2020 10:44:15 GMT-0500 (Central Daylight Time)","Mozilla/5.0 (Windows NT 10.0; Win64; x64) AppleWebKit/537.36 (KHTML, like Gecko) Chrome/85.0.4183.121 Safari/537.36",23,"[0.9, 0.5, 0.1]","[0.8, 0.4, 0.2]","[u'blue', u'black', u'red']","[u'left', u'middle', u'right']","[0.9, 0.5, 0.1]","[u'medium', u'low', u'high']","red",51,"right","high","True","False",267,1400,NA
"AQV468FB908WI","Sat Oct 03 2020 10:15:34 GMT-0500 (Central Daylight Time)","Sat Oct 03 2020 10:44:15 GMT-0500 (Central Daylight Time)","Mozilla/5.0 (Windows NT 10.0; Win64; x64) AppleWebKit/537.36 (KHTML, like Gecko) Chrome/85.0.4183.121 Safari/537.36",24,"[0.9, 0.5, 0.1]","[0.8, 0.4, 0.2]","[u'blue', u'black', u'red']","[u'left', u'middle', u'right']","[0.9, 0.5, 0.1]","[u'medium', u'low', u'high']","red",51,"right","high","True","False",256,1500,NA
"AQV468FB908WI","Sat Oct 03 2020 10:15:34 GMT-0500 (Central Daylight Time)","Sat Oct 03 2020 10:44:15 GMT-0500 (Central Daylight Time)","Mozilla/5.0 (Windows NT 10.0; Win64; x64) AppleWebKit/537.36 (KHTML, like Gecko) Chrome/85.0.4183.121 Safari/537.36",25,"[0.9, 0.5, 0.1]","[0.8, 0.4, 0.2]","[u'blue', u'black', u'red']","[u'left', u'middle', u'right']","[0.9, 0.5, 0.1]","[u'medium', u'low', u'high']","red",51,"right","high","True","False",236,1600,NA
"AQV468FB908WI","Sat Oct 03 2020 10:15:34 GMT-0500 (Central Daylight Time)","Sat Oct 03 2020 10:44:15 GMT-0500 (Central Daylight Time)","Mozilla/5.0 (Windows NT 10.0; Win64; x64) AppleWebKit/537.36 (KHTML, like Gecko) Chrome/85.0.4183.121 Safari/537.36",26,"[0.9, 0.5, 0.1]","[0.8, 0.4, 0.2]","[u'blue', u'black', u'red']","[u'left', u'middle', u'right']","[0.9, 0.5, 0.1]","[u'medium', u'low', u'high']","red",51,"right","high","True","False",274,1700,NA
"AQV468FB908WI","Sat Oct 03 2020 10:15:34 GMT-0500 (Central Daylight Time)","Sat Oct 03 2020 10:44:15 GMT-0500 (Central Daylight Time)","Mozilla/5.0 (Windows NT 10.0; Win64; x64) AppleWebKit/537.36 (KHTML, like Gecko) Chrome/85.0.4183.121 Safari/537.36",27,"[0.9, 0.5, 0.1]","[0.8, 0.4, 0.2]","[u'blue', u'black', u'red']","[u'left', u'middle', u'right']","[0.9, 0.5, 0.1]","[u'medium', u'low', u'high']","red",51,"right","high","True","False",342,1800,NA
"AQV468FB908WI","Sat Oct 03 2020 10:15:34 GMT-0500 (Central Daylight Time)","Sat Oct 03 2020 10:44:15 GMT-0500 (Central Daylight Time)","Mozilla/5.0 (Windows NT 10.0; Win64; x64) AppleWebKit/537.36 (KHTML, like Gecko) Chrome/85.0.4183.121 Safari/537.36",28,"[0.9, 0.5, 0.1]","[0.8, 0.4, 0.2]","[u'blue', u'black', u'red']","[u'left', u'middle', u'right']","[0.9, 0.5, 0.1]","[u'medium', u'low', u'high']","red",51,"right","high","True","True",521,1900,NA
"AQV468FB908WI","Sat Oct 03 2020 10:15:34 GMT-0500 (Central Daylight Time)","Sat Oct 03 2020 10:44:15 GMT-0500 (Central Daylight Time)","Mozilla/5.0 (Windows NT 10.0; Win64; x64) AppleWebKit/537.36 (KHTML, like Gecko) Chrome/85.0.4183.121 Safari/537.36",29,"[0.9, 0.5, 0.1]","[0.8, 0.4, 0.2]","[u'blue', u'black', u'red']","[u'left', u'middle', u'right']","[0.9, 0.5, 0.1]","[u'high', u'medium', u'low']","red",51,"right","low","False","False",305,1850,NA
"AQV468FB908WI","Sat Oct 03 2020 10:15:34 GMT-0500 (Central Daylight Time)","Sat Oct 03 2020 10:44:15 GMT-0500 (Central Daylight Time)","Mozilla/5.0 (Windows NT 10.0; Win64; x64) AppleWebKit/537.36 (KHTML, like Gecko) Chrome/85.0.4183.121 Safari/537.36",30,"[0.9, 0.5, 0.1]","[0.8, 0.4, 0.2]","[u'blue', u'black', u'red']","[u'left', u'middle', u'right']","[0.9, 0.5, 0.1]","[u'high', u'medium', u'low']","blue",49,"left","high","False","False",204,1800,NA
"AQV468FB908WI","Sat Oct 03 2020 10:15:34 GMT-0500 (Central Daylight Time)","Sat Oct 03 2020 10:44:15 GMT-0500 (Central Daylight Time)","Mozilla/5.0 (Windows NT 10.0; Win64; x64) AppleWebKit/537.36 (KHTML, like Gecko) Chrome/85.0.4183.121 Safari/537.36",31,"[0.9, 0.5, 0.1]","[0.8, 0.4, 0.2]","[u'blue', u'black', u'red']","[u'left', u'middle', u'right']","[0.9, 0.5, 0.1]","[u'high', u'medium', u'low']","blue",49,"left","high","True","False",385,1900,NA
"AQV468FB908WI","Sat Oct 03 2020 10:15:34 GMT-0500 (Central Daylight Time)","Sat Oct 03 2020 10:44:15 GMT-0500 (Central Daylight Time)","Mozilla/5.0 (Windows NT 10.0; Win64; x64) AppleWebKit/537.36 (KHTML, like Gecko) Chrome/85.0.4183.121 Safari/537.36",32,"[0.9, 0.5, 0.1]","[0.8, 0.4, 0.2]","[u'blue', u'black', u'red']","[u'left', u'middle', u'right']","[0.9, 0.5, 0.1]","[u'high', u'medium', u'low']","blue",49,"left","high","True","False",352,2000,NA
"AQV468FB908WI","Sat Oct 03 2020 10:15:34 GMT-0500 (Central Daylight Time)","Sat Oct 03 2020 10:44:15 GMT-0500 (Central Daylight Time)","Mozilla/5.0 (Windows NT 10.0; Win64; x64) AppleWebKit/537.36 (KHTML, like Gecko) Chrome/85.0.4183.121 Safari/537.36",33,"[0.9, 0.5, 0.1]","[0.8, 0.4, 0.2]","[u'blue', u'black', u'red']","[u'left', u'middle', u'right']","[0.9, 0.5, 0.1]","[u'high', u'medium', u'low']","blue",49,"left","high","True","False",266,2100,NA
"AQV468FB908WI","Sat Oct 03 2020 10:15:34 GMT-0500 (Central Daylight Time)","Sat Oct 03 2020 10:44:15 GMT-0500 (Central Daylight Time)","Mozilla/5.0 (Windows NT 10.0; Win64; x64) AppleWebKit/537.36 (KHTML, like Gecko) Chrome/85.0.4183.121 Safari/537.36",34,"[0.9, 0.5, 0.1]","[0.8, 0.4, 0.2]","[u'blue', u'black', u'red']","[u'left', u'middle', u'right']","[0.9, 0.5, 0.1]","[u'high', u'medium', u'low']","blue",49,"left","high","True","False",286,2200,NA
"AQV468FB908WI","Sat Oct 03 2020 10:15:34 GMT-0500 (Central Daylight Time)","Sat Oct 03 2020 10:44:15 GMT-0500 (Central Daylight Time)","Mozilla/5.0 (Windows NT 10.0; Win64; x64) AppleWebKit/537.36 (KHTML, like Gecko) Chrome/85.0.4183.121 Safari/537.36",35,"[0.9, 0.5, 0.1]","[0.8, 0.4, 0.2]","[u'blue', u'black', u'red']","[u'left', u'middle', u'right']","[0.9, 0.5, 0.1]","[u'high', u'medium', u'low']","blue",49,"left","high","True","False",86,2300,NA
"AQV468FB908WI","Sat Oct 03 2020 10:15:34 GMT-0500 (Central Daylight Time)","Sat Oct 03 2020 10:44:15 GMT-0500 (Central Daylight Time)","Mozilla/5.0 (Windows NT 10.0; Win64; x64) AppleWebKit/537.36 (KHTML, like Gecko) Chrome/85.0.4183.121 Safari/537.36",36,"[0.9, 0.5, 0.1]","[0.8, 0.4, 0.2]","[u'blue', u'black', u'red']","[u'left', u'middle', u'right']","[0.9, 0.5, 0.1]","[u'high', u'medium', u'low']","blue",49,"left","high","True","False",441,2400,NA
"AQV468FB908WI","Sat Oct 03 2020 10:15:34 GMT-0500 (Central Daylight Time)","Sat Oct 03 2020 10:44:15 GMT-0500 (Central Daylight Time)","Mozilla/5.0 (Windows NT 10.0; Win64; x64) AppleWebKit/537.36 (KHTML, like Gecko) Chrome/85.0.4183.121 Safari/537.36",37,"[0.9, 0.5, 0.1]","[0.8, 0.4, 0.2]","[u'blue', u'black', u'red']","[u'left', u'middle', u'right']","[0.9, 0.5, 0.1]","[u'high', u'medium', u'low']","blue",49,"left","high","True","False",253,2500,NA
"AQV468FB908WI","Sat Oct 03 2020 10:15:34 GMT-0500 (Central Daylight Time)","Sat Oct 03 2020 10:44:15 GMT-0500 (Central Daylight Time)","Mozilla/5.0 (Windows NT 10.0; Win64; x64) AppleWebKit/537.36 (KHTML, like Gecko) Chrome/85.0.4183.121 Safari/537.36",38,"[0.9, 0.5, 0.1]","[0.8, 0.4, 0.2]","[u'blue', u'black', u'red']","[u'left', u'middle', u'right']","[0.9, 0.5, 0.1]","[u'high', u'medium', u'low']","blue",49,"left","high","True","True",261,2600,NA
"AQV468FB908WI","Sat Oct 03 2020 10:15:34 GMT-0500 (Central Daylight Time)","Sat Oct 03 2020 10:44:15 GMT-0500 (Central Daylight Time)","Mozilla/5.0 (Windows NT 10.0; Win64; x64) AppleWebKit/537.36 (KHTML, like Gecko) Chrome/85.0.4183.121 Safari/537.36",39,"[0.9, 0.5, 0.1]","[0.8, 0.4, 0.2]","[u'blue', u'black', u'red']","[u'left', u'middle', u'right']","[0.9, 0.5, 0.1]","[u'medium', u'high', u'low']","blue",49,"left","medium","True","False",383,2700,NA
"AQV468FB908WI","Sat Oct 03 2020 10:15:34 GMT-0500 (Central Daylight Time)","Sat Oct 03 2020 10:44:15 GMT-0500 (Central Daylight Time)","Mozilla/5.0 (Windows NT 10.0; Win64; x64) AppleWebKit/537.36 (KHTML, like Gecko) Chrome/85.0.4183.121 Safari/537.36",40,"[0.9, 0.5, 0.1]","[0.8, 0.4, 0.2]","[u'blue', u'black', u'red']","[u'left', u'middle', u'right']","[0.9, 0.5, 0.1]","[u'medium', u'high', u'low']","blue",49,"left","medium","False","False",273,2650,NA
"AQV468FB908WI","Sat Oct 03 2020 10:15:34 GMT-0500 (Central Daylight Time)","Sat Oct 03 2020 10:44:15 GMT-0500 (Central Daylight Time)","Mozilla/5.0 (Windows NT 10.0; Win64; x64) AppleWebKit/537.36 (KHTML, like Gecko) Chrome/85.0.4183.121 Safari/537.36",41,"[0.9, 0.5, 0.1]","[0.8, 0.4, 0.2]","[u'blue', u'black', u'red']","[u'left', u'middle', u'right']","[0.9, 0.5, 0.1]","[u'low', u'medium', u'high']","black",50,"middle","medium","False","False",743,2600,NA
"AQV468FB908WI","Sat Oct 03 2020 10:15:34 GMT-0500 (Central Daylight Time)","Sat Oct 03 2020 10:44:15 GMT-0500 (Central Daylight Time)","Mozilla/5.0 (Windows NT 10.0; Win64; x64) AppleWebKit/537.36 (KHTML, like Gecko) Chrome/85.0.4183.121 Safari/537.36",42,"[0.9, 0.5, 0.1]","[0.8, 0.4, 0.2]","[u'blue', u'black', u'red']","[u'left', u'middle', u'right']","[0.9, 0.5, 0.1]","[u'low', u'medium', u'high']","red",51,"right","high","True","False",368,2700,NA
"AQV468FB908WI","Sat Oct 03 2020 10:15:34 GMT-0500 (Central Daylight Time)","Sat Oct 03 2020 10:44:15 GMT-0500 (Central Daylight Time)","Mozilla/5.0 (Windows NT 10.0; Win64; x64) AppleWebKit/537.36 (KHTML, like Gecko) Chrome/85.0.4183.121 Safari/537.36",43,"[0.9, 0.5, 0.1]","[0.8, 0.4, 0.2]","[u'blue', u'black', u'red']","[u'left', u'middle', u'right']","[0.9, 0.5, 0.1]","[u'low', u'medium', u'high']","red",51,"right","high","True","False",266,2800,NA
"AQV468FB908WI","Sat Oct 03 2020 10:15:34 GMT-0500 (Central Daylight Time)","Sat Oct 03 2020 10:44:15 GMT-0500 (Central Daylight Time)","Mozilla/5.0 (Windows NT 10.0; Win64; x64) AppleWebKit/537.36 (KHTML, like Gecko) Chrome/85.0.4183.121 Safari/537.36",44,"[0.9, 0.5, 0.1]","[0.8, 0.4, 0.2]","[u'blue', u'black', u'red']","[u'left', u'middle', u'right']","[0.9, 0.5, 0.1]","[u'low', u'medium', u'high']","red",51,"right","high","True","False",215,2900,NA
"AQV468FB908WI","Sat Oct 03 2020 10:15:34 GMT-0500 (Central Daylight Time)","Sat Oct 03 2020 10:44:15 GMT-0500 (Central Daylight Time)","Mozilla/5.0 (Windows NT 10.0; Win64; x64) AppleWebKit/537.36 (KHTML, like Gecko) Chrome/85.0.4183.121 Safari/537.36",45,"[0.9, 0.5, 0.1]","[0.8, 0.4, 0.2]","[u'blue', u'black', u'red']","[u'left', u'middle', u'right']","[0.9, 0.5, 0.1]","[u'low', u'medium', u'high']","red",51,"right","high","True","False",262,3000,NA
"AQV468FB908WI","Sat Oct 03 2020 10:15:34 GMT-0500 (Central Daylight Time)","Sat Oct 03 2020 10:44:15 GMT-0500 (Central Daylight Time)","Mozilla/5.0 (Windows NT 10.0; Win64; x64) AppleWebKit/537.36 (KHTML, like Gecko) Chrome/85.0.4183.121 Safari/537.36",46,"[0.9, 0.5, 0.1]","[0.8, 0.4, 0.2]","[u'blue', u'black', u'red']","[u'left', u'middle', u'right']","[0.9, 0.5, 0.1]","[u'low', u'medium', u'high']","red",51,"right","high","True","False",410,3100,NA
"AQV468FB908WI","Sat Oct 03 2020 10:15:34 GMT-0500 (Central Daylight Time)","Sat Oct 03 2020 10:44:15 GMT-0500 (Central Daylight Time)","Mozilla/5.0 (Windows NT 10.0; Win64; x64) AppleWebKit/537.36 (KHTML, like Gecko) Chrome/85.0.4183.121 Safari/537.36",47,"[0.9, 0.5, 0.1]","[0.8, 0.4, 0.2]","[u'blue', u'black', u'red']","[u'left', u'middle', u'right']","[0.9, 0.5, 0.1]","[u'low', u'medium', u'high']","red",51,"right","high","False","False",317,3050,NA
"AQV468FB908WI","Sat Oct 03 2020 10:15:34 GMT-0500 (Central Daylight Time)","Sat Oct 03 2020 10:44:15 GMT-0500 (Central Daylight Time)","Mozilla/5.0 (Windows NT 10.0; Win64; x64) AppleWebKit/537.36 (KHTML, like Gecko) Chrome/85.0.4183.121 Safari/537.36",48,"[0.9, 0.5, 0.1]","[0.8, 0.4, 0.2]","[u'blue', u'black', u'red']","[u'left', u'middle', u'right']","[0.9, 0.5, 0.1]","[u'low', u'medium', u'high']","red",51,"right","high","True","False",180,3150,NA
"AQV468FB908WI","Sat Oct 03 2020 10:15:34 GMT-0500 (Central Daylight Time)","Sat Oct 03 2020 10:44:15 GMT-0500 (Central Daylight Time)","Mozilla/5.0 (Windows NT 10.0; Win64; x64) AppleWebKit/537.36 (KHTML, like Gecko) Chrome/85.0.4183.121 Safari/537.36",49,"[0.9, 0.5, 0.1]","[0.8, 0.4, 0.2]","[u'blue', u'black', u'red']","[u'left', u'middle', u'right']","[0.9, 0.5, 0.1]","[u'low', u'medium', u'high']","red",51,"right","high","True","False",246,3250,NA
"AQV468FB908WI","Sat Oct 03 2020 10:15:34 GMT-0500 (Central Daylight Time)","Sat Oct 03 2020 10:44:15 GMT-0500 (Central Daylight Time)","Mozilla/5.0 (Windows NT 10.0; Win64; x64) AppleWebKit/537.36 (KHTML, like Gecko) Chrome/85.0.4183.121 Safari/537.36",50,"[0.9, 0.5, 0.1]","[0.8, 0.4, 0.2]","[u'blue', u'black', u'red']","[u'left', u'middle', u'right']","[0.9, 0.5, 0.1]","[u'low', u'medium', u'high']","red",51,"right","high","True","True",266,3350,NA
"AQV468FB908WI","Sat Oct 03 2020 10:15:34 GMT-0500 (Central Daylight Time)","Sat Oct 03 2020 10:44:15 GMT-0500 (Central Daylight Time)","Mozilla/5.0 (Windows NT 10.0; Win64; x64) AppleWebKit/537.36 (KHTML, like Gecko) Chrome/85.0.4183.121 Safari/537.36",51,"[0.9, 0.5, 0.1]","[0.8, 0.4, 0.2]","[u'blue', u'black', u'red']","[u'left', u'middle', u'right']","[0.9, 0.5, 0.1]","[u'high', u'medium', u'low']","red",51,"right","low","False","False",265,3300,NA
"AQV468FB908WI","Sat Oct 03 2020 10:15:34 GMT-0500 (Central Daylight Time)","Sat Oct 03 2020 10:44:15 GMT-0500 (Central Daylight Time)","Mozilla/5.0 (Windows NT 10.0; Win64; x64) AppleWebKit/537.36 (KHTML, like Gecko) Chrome/85.0.4183.121 Safari/537.36",52,"[0.9, 0.5, 0.1]","[0.8, 0.4, 0.2]","[u'blue', u'black', u'red']","[u'left', u'middle', u'right']","[0.9, 0.5, 0.1]","[u'high', u'medium', u'low']","blue",49,"left","high","False","False",295,3250,NA
"AQV468FB908WI","Sat Oct 03 2020 10:15:34 GMT-0500 (Central Daylight Time)","Sat Oct 03 2020 10:44:15 GMT-0500 (Central Daylight Time)","Mozilla/5.0 (Windows NT 10.0; Win64; x64) AppleWebKit/537.36 (KHTML, like Gecko) Chrome/85.0.4183.121 Safari/537.36",53,"[0.9, 0.5, 0.1]","[0.8, 0.4, 0.2]","[u'blue', u'black', u'red']","[u'left', u'middle', u'right']","[0.9, 0.5, 0.1]","[u'high', u'medium', u'low']","black",50,"middle","medium","False","False",237,3200,NA
"AQV468FB908WI","Sat Oct 03 2020 10:15:34 GMT-0500 (Central Daylight Time)","Sat Oct 03 2020 10:44:15 GMT-0500 (Central Daylight Time)","Mozilla/5.0 (Windows NT 10.0; Win64; x64) AppleWebKit/537.36 (KHTML, like Gecko) Chrome/85.0.4183.121 Safari/537.36",54,"[0.9, 0.5, 0.1]","[0.8, 0.4, 0.2]","[u'blue', u'black', u'red']","[u'left', u'middle', u'right']","[0.9, 0.5, 0.1]","[u'high', u'medium', u'low']","red",51,"right","low","False","False",157,3150,NA
"AQV468FB908WI","Sat Oct 03 2020 10:15:34 GMT-0500 (Central Daylight Time)","Sat Oct 03 2020 10:44:15 GMT-0500 (Central Daylight Time)","Mozilla/5.0 (Windows NT 10.0; Win64; x64) AppleWebKit/537.36 (KHTML, like Gecko) Chrome/85.0.4183.121 Safari/537.36",55,"[0.9, 0.5, 0.1]","[0.8, 0.4, 0.2]","[u'blue', u'black', u'red']","[u'left', u'middle', u'right']","[0.9, 0.5, 0.1]","[u'high', u'medium', u'low']","red",51,"right","low","False","False",172,3100,NA
"AQV468FB908WI","Sat Oct 03 2020 10:15:34 GMT-0500 (Central Daylight Time)","Sat Oct 03 2020 10:44:15 GMT-0500 (Central Daylight Time)","Mozilla/5.0 (Windows NT 10.0; Win64; x64) AppleWebKit/537.36 (KHTML, like Gecko) Chrome/85.0.4183.121 Safari/537.36",56,"[0.9, 0.5, 0.1]","[0.8, 0.4, 0.2]","[u'blue', u'black', u'red']","[u'left', u'middle', u'right']","[0.9, 0.5, 0.1]","[u'high', u'medium', u'low']","blue",49,"left","high","True","False",629,3200,NA
"AQV468FB908WI","Sat Oct 03 2020 10:15:34 GMT-0500 (Central Daylight Time)","Sat Oct 03 2020 10:44:15 GMT-0500 (Central Daylight Time)","Mozilla/5.0 (Windows NT 10.0; Win64; x64) AppleWebKit/537.36 (KHTML, like Gecko) Chrome/85.0.4183.121 Safari/537.36",57,"[0.9, 0.5, 0.1]","[0.8, 0.4, 0.2]","[u'blue', u'black', u'red']","[u'left', u'middle', u'right']","[0.9, 0.5, 0.1]","[u'high', u'medium', u'low']","blue",49,"left","high","True","False",445,3300,NA
"AQV468FB908WI","Sat Oct 03 2020 10:15:34 GMT-0500 (Central Daylight Time)","Sat Oct 03 2020 10:44:15 GMT-0500 (Central Daylight Time)","Mozilla/5.0 (Windows NT 10.0; Win64; x64) AppleWebKit/537.36 (KHTML, like Gecko) Chrome/85.0.4183.121 Safari/537.36",58,"[0.9, 0.5, 0.1]","[0.8, 0.4, 0.2]","[u'blue', u'black', u'red']","[u'left', u'middle', u'right']","[0.9, 0.5, 0.1]","[u'high', u'medium', u'low']","blue",49,"left","high","True","False",375,3400,NA
"AQV468FB908WI","Sat Oct 03 2020 10:15:34 GMT-0500 (Central Daylight Time)","Sat Oct 03 2020 10:44:15 GMT-0500 (Central Daylight Time)","Mozilla/5.0 (Windows NT 10.0; Win64; x64) AppleWebKit/537.36 (KHTML, like Gecko) Chrome/85.0.4183.121 Safari/537.36",59,"[0.9, 0.5, 0.1]","[0.8, 0.4, 0.2]","[u'blue', u'black', u'red']","[u'left', u'middle', u'right']","[0.9, 0.5, 0.1]","[u'high', u'medium', u'low']","blue",49,"left","high","True","False",339,3500,NA
"AQV468FB908WI","Sat Oct 03 2020 10:15:34 GMT-0500 (Central Daylight Time)","Sat Oct 03 2020 10:44:15 GMT-0500 (Central Daylight Time)","Mozilla/5.0 (Windows NT 10.0; Win64; x64) AppleWebKit/537.36 (KHTML, like Gecko) Chrome/85.0.4183.121 Safari/537.36",60,"[0.9, 0.5, 0.1]","[0.8, 0.4, 0.2]","[u'blue', u'black', u'red']","[u'left', u'middle', u'right']","[0.9, 0.5, 0.1]","[u'high', u'medium', u'low']","blue",49,"left","high","True","False",259,3600,NA
"AQV468FB908WI","Sat Oct 03 2020 10:15:34 GMT-0500 (Central Daylight Time)","Sat Oct 03 2020 10:44:15 GMT-0500 (Central Daylight Time)","Mozilla/5.0 (Windows NT 10.0; Win64; x64) AppleWebKit/537.36 (KHTML, like Gecko) Chrome/85.0.4183.121 Safari/537.36",61,"[0.9, 0.5, 0.1]","[0.8, 0.4, 0.2]","[u'blue', u'black', u'red']","[u'left', u'middle', u'right']","[0.9, 0.5, 0.1]","[u'high', u'medium', u'low']","blue",49,"left","high","True","False",773,3700,NA
"AQV468FB908WI","Sat Oct 03 2020 10:15:34 GMT-0500 (Central Daylight Time)","Sat Oct 03 2020 10:44:15 GMT-0500 (Central Daylight Time)","Mozilla/5.0 (Windows NT 10.0; Win64; x64) AppleWebKit/537.36 (KHTML, like Gecko) Chrome/85.0.4183.121 Safari/537.36",62,"[0.9, 0.5, 0.1]","[0.8, 0.4, 0.2]","[u'blue', u'black', u'red']","[u'left', u'middle', u'right']","[0.9, 0.5, 0.1]","[u'high', u'medium', u'low']","blue",49,"left","high","True","False",466,3800,NA
"AQV468FB908WI","Sat Oct 03 2020 10:15:34 GMT-0500 (Central Daylight Time)","Sat Oct 03 2020 10:44:15 GMT-0500 (Central Daylight Time)","Mozilla/5.0 (Windows NT 10.0; Win64; x64) AppleWebKit/537.36 (KHTML, like Gecko) Chrome/85.0.4183.121 Safari/537.36",63,"[0.9, 0.5, 0.1]","[0.8, 0.4, 0.2]","[u'blue', u'black', u'red']","[u'left', u'middle', u'right']","[0.9, 0.5, 0.1]","[u'high', u'medium', u'low']","blue",49,"left","high","True","False",419,3900,NA
"AQV468FB908WI","Sat Oct 03 2020 10:15:34 GMT-0500 (Central Daylight Time)","Sat Oct 03 2020 10:44:15 GMT-0500 (Central Daylight Time)","Mozilla/5.0 (Windows NT 10.0; Win64; x64) AppleWebKit/537.36 (KHTML, like Gecko) Chrome/85.0.4183.121 Safari/537.36",64,"[0.9, 0.5, 0.1]","[0.8, 0.4, 0.2]","[u'blue', u'black', u'red']","[u'left', u'middle', u'right']","[0.9, 0.5, 0.1]","[u'high', u'medium', u'low']","blue",49,"left","high","True","True",474,4000,NA
"AQV468FB908WI","Sat Oct 03 2020 10:15:34 GMT-0500 (Central Daylight Time)","Sat Oct 03 2020 10:44:15 GMT-0500 (Central Daylight Time)","Mozilla/5.0 (Windows NT 10.0; Win64; x64) AppleWebKit/537.36 (KHTML, like Gecko) Chrome/85.0.4183.121 Safari/537.36",65,"[0.9, 0.5, 0.1]","[0.8, 0.4, 0.2]","[u'blue', u'black', u'red']","[u'left', u'middle', u'right']","[0.9, 0.5, 0.1]","[u'low', u'high', u'medium']","blue",49,"left","low","False","False",367,3950,NA
"AQV468FB908WI","Sat Oct 03 2020 10:15:34 GMT-0500 (Central Daylight Time)","Sat Oct 03 2020 10:44:15 GMT-0500 (Central Daylight Time)","Mozilla/5.0 (Windows NT 10.0; Win64; x64) AppleWebKit/537.36 (KHTML, like Gecko) Chrome/85.0.4183.121 Safari/537.36",66,"[0.9, 0.5, 0.1]","[0.8, 0.4, 0.2]","[u'blue', u'black', u'red']","[u'left', u'middle', u'right']","[0.9, 0.5, 0.1]","[u'low', u'high', u'medium']","blue",49,"left","low","False","False",676,3900,NA
"AQV468FB908WI","Sat Oct 03 2020 10:15:34 GMT-0500 (Central Daylight Time)","Sat Oct 03 2020 10:44:15 GMT-0500 (Central Daylight Time)","Mozilla/5.0 (Windows NT 10.0; Win64; x64) AppleWebKit/537.36 (KHTML, like Gecko) Chrome/85.0.4183.121 Safari/537.36",67,"[0.9, 0.5, 0.1]","[0.8, 0.4, 0.2]","[u'blue', u'black', u'red']","[u'left', u'middle', u'right']","[0.9, 0.5, 0.1]","[u'low', u'high', u'medium']","blue",49,"left","low","False","False",229,3850,NA
"AQV468FB908WI","Sat Oct 03 2020 10:15:34 GMT-0500 (Central Daylight Time)","Sat Oct 03 2020 10:44:15 GMT-0500 (Central Daylight Time)","Mozilla/5.0 (Windows NT 10.0; Win64; x64) AppleWebKit/537.36 (KHTML, like Gecko) Chrome/85.0.4183.121 Safari/537.36",68,"[0.9, 0.5, 0.1]","[0.8, 0.4, 0.2]","[u'blue', u'black', u'red']","[u'left', u'middle', u'right']","[0.9, 0.5, 0.1]","[u'low', u'high', u'medium']","black",50,"middle","high","True","False",339,3950,NA
"AQV468FB908WI","Sat Oct 03 2020 10:15:34 GMT-0500 (Central Daylight Time)","Sat Oct 03 2020 10:44:15 GMT-0500 (Central Daylight Time)","Mozilla/5.0 (Windows NT 10.0; Win64; x64) AppleWebKit/537.36 (KHTML, like Gecko) Chrome/85.0.4183.121 Safari/537.36",69,"[0.9, 0.5, 0.1]","[0.8, 0.4, 0.2]","[u'blue', u'black', u'red']","[u'left', u'middle', u'right']","[0.9, 0.5, 0.1]","[u'low', u'high', u'medium']","black",50,"middle","high","True","False",403,4050,NA
"AQV468FB908WI","Sat Oct 03 2020 10:15:34 GMT-0500 (Central Daylight Time)","Sat Oct 03 2020 10:44:15 GMT-0500 (Central Daylight Time)","Mozilla/5.0 (Windows NT 10.0; Win64; x64) AppleWebKit/537.36 (KHTML, like Gecko) Chrome/85.0.4183.121 Safari/537.36",70,"[0.9, 0.5, 0.1]","[0.8, 0.4, 0.2]","[u'blue', u'black', u'red']","[u'left', u'middle', u'right']","[0.9, 0.5, 0.1]","[u'low', u'high', u'medium']","black",50,"middle","high","True","False",293,4150,NA
"AQV468FB908WI","Sat Oct 03 2020 10:15:34 GMT-0500 (Central Daylight Time)","Sat Oct 03 2020 10:44:15 GMT-0500 (Central Daylight Time)","Mozilla/5.0 (Windows NT 10.0; Win64; x64) AppleWebKit/537.36 (KHTML, like Gecko) Chrome/85.0.4183.121 Safari/537.36",71,"[0.9, 0.5, 0.1]","[0.8, 0.4, 0.2]","[u'blue', u'black', u'red']","[u'left', u'middle', u'right']","[0.9, 0.5, 0.1]","[u'low', u'high', u'medium']","black",50,"middle","high","True","False",238,4250,NA
"AQV468FB908WI","Sat Oct 03 2020 10:15:34 GMT-0500 (Central Daylight Time)","Sat Oct 03 2020 10:44:15 GMT-0500 (Central Daylight Time)","Mozilla/5.0 (Windows NT 10.0; Win64; x64) AppleWebKit/537.36 (KHTML, like Gecko) Chrome/85.0.4183.121 Safari/537.36",72,"[0.9, 0.5, 0.1]","[0.8, 0.4, 0.2]","[u'blue', u'black', u'red']","[u'left', u'middle', u'right']","[0.9, 0.5, 0.1]","[u'low', u'high', u'medium']","black",50,"middle","high","True","False",204,4350,NA
"AQV468FB908WI","Sat Oct 03 2020 10:15:34 GMT-0500 (Central Daylight Time)","Sat Oct 03 2020 10:44:15 GMT-0500 (Central Daylight Time)","Mozilla/5.0 (Windows NT 10.0; Win64; x64) AppleWebKit/537.36 (KHTML, like Gecko) Chrome/85.0.4183.121 Safari/537.36",73,"[0.9, 0.5, 0.1]","[0.8, 0.4, 0.2]","[u'blue', u'black', u'red']","[u'left', u'middle', u'right']","[0.9, 0.5, 0.1]","[u'low', u'high', u'medium']","black",50,"middle","high","True","False",241,4450,NA
"AQV468FB908WI","Sat Oct 03 2020 10:15:34 GMT-0500 (Central Daylight Time)","Sat Oct 03 2020 10:44:15 GMT-0500 (Central Daylight Time)","Mozilla/5.0 (Windows NT 10.0; Win64; x64) AppleWebKit/537.36 (KHTML, like Gecko) Chrome/85.0.4183.121 Safari/537.36",74,"[0.9, 0.5, 0.1]","[0.8, 0.4, 0.2]","[u'blue', u'black', u'red']","[u'left', u'middle', u'right']","[0.9, 0.5, 0.1]","[u'low', u'high', u'medium']","black",50,"middle","high","True","False",279,4550,NA
"AQV468FB908WI","Sat Oct 03 2020 10:15:34 GMT-0500 (Central Daylight Time)","Sat Oct 03 2020 10:44:15 GMT-0500 (Central Daylight Time)","Mozilla/5.0 (Windows NT 10.0; Win64; x64) AppleWebKit/537.36 (KHTML, like Gecko) Chrome/85.0.4183.121 Safari/537.36",75,"[0.9, 0.5, 0.1]","[0.8, 0.4, 0.2]","[u'blue', u'black', u'red']","[u'left', u'middle', u'right']","[0.9, 0.5, 0.1]","[u'low', u'high', u'medium']","black",50,"middle","high","True","False",307,4650,NA
"AQV468FB908WI","Sat Oct 03 2020 10:15:34 GMT-0500 (Central Daylight Time)","Sat Oct 03 2020 10:44:15 GMT-0500 (Central Daylight Time)","Mozilla/5.0 (Windows NT 10.0; Win64; x64) AppleWebKit/537.36 (KHTML, like Gecko) Chrome/85.0.4183.121 Safari/537.36",76,"[0.9, 0.5, 0.1]","[0.8, 0.4, 0.2]","[u'blue', u'black', u'red']","[u'left', u'middle', u'right']","[0.9, 0.5, 0.1]","[u'low', u'high', u'medium']","black",50,"middle","high","False","True",402,4600,NA
"AQV468FB908WI","Sat Oct 03 2020 10:15:34 GMT-0500 (Central Daylight Time)","Sat Oct 03 2020 10:44:15 GMT-0500 (Central Daylight Time)","Mozilla/5.0 (Windows NT 10.0; Win64; x64) AppleWebKit/537.36 (KHTML, like Gecko) Chrome/85.0.4183.121 Safari/537.36",77,"[0.9, 0.5, 0.1]","[0.8, 0.4, 0.2]","[u'blue', u'black', u'red']","[u'left', u'middle', u'right']","[0.9, 0.5, 0.1]","[u'low', u'medium', u'high']","red",51,"right","high","True","False",396,4700,NA
"AQV468FB908WI","Sat Oct 03 2020 10:15:34 GMT-0500 (Central Daylight Time)","Sat Oct 03 2020 10:44:15 GMT-0500 (Central Daylight Time)","Mozilla/5.0 (Windows NT 10.0; Win64; x64) AppleWebKit/537.36 (KHTML, like Gecko) Chrome/85.0.4183.121 Safari/537.36",78,"[0.9, 0.5, 0.1]","[0.8, 0.4, 0.2]","[u'blue', u'black', u'red']","[u'left', u'middle', u'right']","[0.9, 0.5, 0.1]","[u'low', u'medium', u'high']","red",51,"right","high","False","False",335,4650,NA
"AQV468FB908WI","Sat Oct 03 2020 10:15:34 GMT-0500 (Central Daylight Time)","Sat Oct 03 2020 10:44:15 GMT-0500 (Central Daylight Time)","Mozilla/5.0 (Windows NT 10.0; Win64; x64) AppleWebKit/537.36 (KHTML, like Gecko) Chrome/85.0.4183.121 Safari/537.36",79,"[0.9, 0.5, 0.1]","[0.8, 0.4, 0.2]","[u'blue', u'black', u'red']","[u'left', u'middle', u'right']","[0.9, 0.5, 0.1]","[u'low', u'medium', u'high']","red",51,"right","high","True","False",237,4750,NA
"AQV468FB908WI","Sat Oct 03 2020 10:15:34 GMT-0500 (Central Daylight Time)","Sat Oct 03 2020 10:44:15 GMT-0500 (Central Daylight Time)","Mozilla/5.0 (Windows NT 10.0; Win64; x64) AppleWebKit/537.36 (KHTML, like Gecko) Chrome/85.0.4183.121 Safari/537.36",80,"[0.9, 0.5, 0.1]","[0.8, 0.4, 0.2]","[u'blue', u'black', u'red']","[u'left', u'middle', u'right']","[0.9, 0.5, 0.1]","[u'low', u'medium', u'high']","red",51,"right","high","True","False",384,4850,NA
"AQV468FB908WI","Sat Oct 03 2020 10:15:34 GMT-0500 (Central Daylight Time)","Sat Oct 03 2020 10:44:15 GMT-0500 (Central Daylight Time)","Mozilla/5.0 (Windows NT 10.0; Win64; x64) AppleWebKit/537.36 (KHTML, like Gecko) Chrome/85.0.4183.121 Safari/537.36",81,"[0.9, 0.5, 0.1]","[0.8, 0.4, 0.2]","[u'blue', u'black', u'red']","[u'left', u'middle', u'right']","[0.8, 0.4, 0.2]","[u'high', u'medium', u'low']","red",51,"right","low","False","False",403,4800,NA
"AQV468FB908WI","Sat Oct 03 2020 10:15:34 GMT-0500 (Central Daylight Time)","Sat Oct 03 2020 10:44:15 GMT-0500 (Central Daylight Time)","Mozilla/5.0 (Windows NT 10.0; Win64; x64) AppleWebKit/537.36 (KHTML, like Gecko) Chrome/85.0.4183.121 Safari/537.36",82,"[0.9, 0.5, 0.1]","[0.8, 0.4, 0.2]","[u'blue', u'black', u'red']","[u'left', u'middle', u'right']","[0.8, 0.4, 0.2]","[u'high', u'medium', u'low']","black",50,"middle","medium","True","False",146,4900,NA
"AQV468FB908WI","Sat Oct 03 2020 10:15:34 GMT-0500 (Central Daylight Time)","Sat Oct 03 2020 10:44:15 GMT-0500 (Central Daylight Time)","Mozilla/5.0 (Windows NT 10.0; Win64; x64) AppleWebKit/537.36 (KHTML, like Gecko) Chrome/85.0.4183.121 Safari/537.36",83,"[0.9, 0.5, 0.1]","[0.8, 0.4, 0.2]","[u'blue', u'black', u'red']","[u'left', u'middle', u'right']","[0.8, 0.4, 0.2]","[u'high', u'medium', u'low']","black",50,"middle","medium","True","False",238,5000,NA
"AQV468FB908WI","Sat Oct 03 2020 10:15:34 GMT-0500 (Central Daylight Time)","Sat Oct 03 2020 10:44:15 GMT-0500 (Central Daylight Time)","Mozilla/5.0 (Windows NT 10.0; Win64; x64) AppleWebKit/537.36 (KHTML, like Gecko) Chrome/85.0.4183.121 Safari/537.36",84,"[0.9, 0.5, 0.1]","[0.8, 0.4, 0.2]","[u'blue', u'black', u'red']","[u'left', u'middle', u'right']","[0.8, 0.4, 0.2]","[u'high', u'medium', u'low']","black",50,"middle","medium","False","False",225,4950,NA
"AQV468FB908WI","Sat Oct 03 2020 10:15:34 GMT-0500 (Central Daylight Time)","Sat Oct 03 2020 10:44:15 GMT-0500 (Central Daylight Time)","Mozilla/5.0 (Windows NT 10.0; Win64; x64) AppleWebKit/537.36 (KHTML, like Gecko) Chrome/85.0.4183.121 Safari/537.36",85,"[0.9, 0.5, 0.1]","[0.8, 0.4, 0.2]","[u'blue', u'black', u'red']","[u'left', u'middle', u'right']","[0.8, 0.4, 0.2]","[u'high', u'medium', u'low']","blue",49,"left","high","True","False",319,5050,NA
"AQV468FB908WI","Sat Oct 03 2020 10:15:34 GMT-0500 (Central Daylight Time)","Sat Oct 03 2020 10:44:15 GMT-0500 (Central Daylight Time)","Mozilla/5.0 (Windows NT 10.0; Win64; x64) AppleWebKit/537.36 (KHTML, like Gecko) Chrome/85.0.4183.121 Safari/537.36",86,"[0.9, 0.5, 0.1]","[0.8, 0.4, 0.2]","[u'blue', u'black', u'red']","[u'left', u'middle', u'right']","[0.8, 0.4, 0.2]","[u'high', u'medium', u'low']","blue",49,"left","high","True","False",208,5150,NA
"AQV468FB908WI","Sat Oct 03 2020 10:15:34 GMT-0500 (Central Daylight Time)","Sat Oct 03 2020 10:44:15 GMT-0500 (Central Daylight Time)","Mozilla/5.0 (Windows NT 10.0; Win64; x64) AppleWebKit/537.36 (KHTML, like Gecko) Chrome/85.0.4183.121 Safari/537.36",87,"[0.9, 0.5, 0.1]","[0.8, 0.4, 0.2]","[u'blue', u'black', u'red']","[u'left', u'middle', u'right']","[0.8, 0.4, 0.2]","[u'high', u'medium', u'low']","blue",49,"left","high","False","False",945,5100,NA
"AQV468FB908WI","Sat Oct 03 2020 10:15:34 GMT-0500 (Central Daylight Time)","Sat Oct 03 2020 10:44:15 GMT-0500 (Central Daylight Time)","Mozilla/5.0 (Windows NT 10.0; Win64; x64) AppleWebKit/537.36 (KHTML, like Gecko) Chrome/85.0.4183.121 Safari/537.36",88,"[0.9, 0.5, 0.1]","[0.8, 0.4, 0.2]","[u'blue', u'black', u'red']","[u'left', u'middle', u'right']","[0.8, 0.4, 0.2]","[u'high', u'medium', u'low']","black",50,"middle","medium","True","False",224,5200,NA
"AQV468FB908WI","Sat Oct 03 2020 10:15:34 GMT-0500 (Central Daylight Time)","Sat Oct 03 2020 10:44:15 GMT-0500 (Central Daylight Time)","Mozilla/5.0 (Windows NT 10.0; Win64; x64) AppleWebKit/537.36 (KHTML, like Gecko) Chrome/85.0.4183.121 Safari/537.36",89,"[0.9, 0.5, 0.1]","[0.8, 0.4, 0.2]","[u'blue', u'black', u'red']","[u'left', u'middle', u'right']","[0.8, 0.4, 0.2]","[u'high', u'medium', u'low']","black",50,"middle","medium","False","False",287,5150,NA
"AQV468FB908WI","Sat Oct 03 2020 10:15:34 GMT-0500 (Central Daylight Time)","Sat Oct 03 2020 10:44:15 GMT-0500 (Central Daylight Time)","Mozilla/5.0 (Windows NT 10.0; Win64; x64) AppleWebKit/537.36 (KHTML, like Gecko) Chrome/85.0.4183.121 Safari/537.36",90,"[0.9, 0.5, 0.1]","[0.8, 0.4, 0.2]","[u'blue', u'black', u'red']","[u'left', u'middle', u'right']","[0.8, 0.4, 0.2]","[u'high', u'medium', u'low']","red",51,"right","low","True","False",261,5250,NA
"AQV468FB908WI","Sat Oct 03 2020 10:15:34 GMT-0500 (Central Daylight Time)","Sat Oct 03 2020 10:44:15 GMT-0500 (Central Daylight Time)","Mozilla/5.0 (Windows NT 10.0; Win64; x64) AppleWebKit/537.36 (KHTML, like Gecko) Chrome/85.0.4183.121 Safari/537.36",91,"[0.9, 0.5, 0.1]","[0.8, 0.4, 0.2]","[u'blue', u'black', u'red']","[u'left', u'middle', u'right']","[0.8, 0.4, 0.2]","[u'high', u'medium', u'low']","red",51,"right","low","False","False",249,5200,NA
"AQV468FB908WI","Sat Oct 03 2020 10:15:34 GMT-0500 (Central Daylight Time)","Sat Oct 03 2020 10:44:15 GMT-0500 (Central Daylight Time)","Mozilla/5.0 (Windows NT 10.0; Win64; x64) AppleWebKit/537.36 (KHTML, like Gecko) Chrome/85.0.4183.121 Safari/537.36",92,"[0.9, 0.5, 0.1]","[0.8, 0.4, 0.2]","[u'blue', u'black', u'red']","[u'left', u'middle', u'right']","[0.8, 0.4, 0.2]","[u'high', u'medium', u'low']","red",51,"right","low","True","False",236,5300,NA
"AQV468FB908WI","Sat Oct 03 2020 10:15:34 GMT-0500 (Central Daylight Time)","Sat Oct 03 2020 10:44:15 GMT-0500 (Central Daylight Time)","Mozilla/5.0 (Windows NT 10.0; Win64; x64) AppleWebKit/537.36 (KHTML, like Gecko) Chrome/85.0.4183.121 Safari/537.36",93,"[0.9, 0.5, 0.1]","[0.8, 0.4, 0.2]","[u'blue', u'black', u'red']","[u'left', u'middle', u'right']","[0.8, 0.4, 0.2]","[u'high', u'medium', u'low']","red",51,"right","low","False","False",230,5250,NA
"AQV468FB908WI","Sat Oct 03 2020 10:15:34 GMT-0500 (Central Daylight Time)","Sat Oct 03 2020 10:44:15 GMT-0500 (Central Daylight Time)","Mozilla/5.0 (Windows NT 10.0; Win64; x64) AppleWebKit/537.36 (KHTML, like Gecko) Chrome/85.0.4183.121 Safari/537.36",94,"[0.9, 0.5, 0.1]","[0.8, 0.4, 0.2]","[u'blue', u'black', u'red']","[u'left', u'middle', u'right']","[0.8, 0.4, 0.2]","[u'high', u'medium', u'low']","blue",49,"left","high","True","False",176,5350,NA
"AQV468FB908WI","Sat Oct 03 2020 10:15:34 GMT-0500 (Central Daylight Time)","Sat Oct 03 2020 10:44:15 GMT-0500 (Central Daylight Time)","Mozilla/5.0 (Windows NT 10.0; Win64; x64) AppleWebKit/537.36 (KHTML, like Gecko) Chrome/85.0.4183.121 Safari/537.36",95,"[0.9, 0.5, 0.1]","[0.8, 0.4, 0.2]","[u'blue', u'black', u'red']","[u'left', u'middle', u'right']","[0.8, 0.4, 0.2]","[u'high', u'medium', u'low']","blue",49,"left","high","False","False",189,5300,NA
"AQV468FB908WI","Sat Oct 03 2020 10:15:34 GMT-0500 (Central Daylight Time)","Sat Oct 03 2020 10:44:15 GMT-0500 (Central Daylight Time)","Mozilla/5.0 (Windows NT 10.0; Win64; x64) AppleWebKit/537.36 (KHTML, like Gecko) Chrome/85.0.4183.121 Safari/537.36",96,"[0.9, 0.5, 0.1]","[0.8, 0.4, 0.2]","[u'blue', u'black', u'red']","[u'left', u'middle', u'right']","[0.8, 0.4, 0.2]","[u'high', u'medium', u'low']","black",50,"middle","medium","False","False",191,5250,NA
"AQV468FB908WI","Sat Oct 03 2020 10:15:34 GMT-0500 (Central Daylight Time)","Sat Oct 03 2020 10:44:15 GMT-0500 (Central Daylight Time)","Mozilla/5.0 (Windows NT 10.0; Win64; x64) AppleWebKit/537.36 (KHTML, like Gecko) Chrome/85.0.4183.121 Safari/537.36",97,"[0.9, 0.5, 0.1]","[0.8, 0.4, 0.2]","[u'blue', u'black', u'red']","[u'left', u'middle', u'right']","[0.8, 0.4, 0.2]","[u'high', u'medium', u'low']","black",50,"middle","medium","True","False",174,5350,NA
"AQV468FB908WI","Sat Oct 03 2020 10:15:34 GMT-0500 (Central Daylight Time)","Sat Oct 03 2020 10:44:15 GMT-0500 (Central Daylight Time)","Mozilla/5.0 (Windows NT 10.0; Win64; x64) AppleWebKit/537.36 (KHTML, like Gecko) Chrome/85.0.4183.121 Safari/537.36",98,"[0.9, 0.5, 0.1]","[0.8, 0.4, 0.2]","[u'blue', u'black', u'red']","[u'left', u'middle', u'right']","[0.8, 0.4, 0.2]","[u'high', u'medium', u'low']","black",50,"middle","medium","True","False",234,5450,NA
"AQV468FB908WI","Sat Oct 03 2020 10:15:34 GMT-0500 (Central Daylight Time)","Sat Oct 03 2020 10:44:15 GMT-0500 (Central Daylight Time)","Mozilla/5.0 (Windows NT 10.0; Win64; x64) AppleWebKit/537.36 (KHTML, like Gecko) Chrome/85.0.4183.121 Safari/537.36",99,"[0.9, 0.5, 0.1]","[0.8, 0.4, 0.2]","[u'blue', u'black', u'red']","[u'left', u'middle', u'right']","[0.8, 0.4, 0.2]","[u'high', u'medium', u'low']","black",50,"middle","medium","False","False",432,5400,NA
"AQV468FB908WI","Sat Oct 03 2020 10:15:34 GMT-0500 (Central Daylight Time)","Sat Oct 03 2020 10:44:15 GMT-0500 (Central Daylight Time)","Mozilla/5.0 (Windows NT 10.0; Win64; x64) AppleWebKit/537.36 (KHTML, like Gecko) Chrome/85.0.4183.121 Safari/537.36",100,"[0.9, 0.5, 0.1]","[0.8, 0.4, 0.2]","[u'blue', u'black', u'red']","[u'left', u'middle', u'right']","[0.8, 0.4, 0.2]","[u'high', u'medium', u'low']","black",50,"middle","medium","False","False",260,5350,NA
"AQV468FB908WI","Sat Oct 03 2020 10:15:34 GMT-0500 (Central Daylight Time)","Sat Oct 03 2020 10:44:15 GMT-0500 (Central Daylight Time)","Mozilla/5.0 (Windows NT 10.0; Win64; x64) AppleWebKit/537.36 (KHTML, like Gecko) Chrome/85.0.4183.121 Safari/537.36",101,"[0.9, 0.5, 0.1]","[0.8, 0.4, 0.2]","[u'blue', u'black', u'red']","[u'left', u'middle', u'right']","[0.8, 0.4, 0.2]","[u'high', u'medium', u'low']","blue",49,"left","high","False","False",230,5300,NA
"AQV468FB908WI","Sat Oct 03 2020 10:15:34 GMT-0500 (Central Daylight Time)","Sat Oct 03 2020 10:44:15 GMT-0500 (Central Daylight Time)","Mozilla/5.0 (Windows NT 10.0; Win64; x64) AppleWebKit/537.36 (KHTML, like Gecko) Chrome/85.0.4183.121 Safari/537.36",102,"[0.9, 0.5, 0.1]","[0.8, 0.4, 0.2]","[u'blue', u'black', u'red']","[u'left', u'middle', u'right']","[0.8, 0.4, 0.2]","[u'high', u'medium', u'low']","blue",49,"left","high","True","False",219,5400,NA
"AQV468FB908WI","Sat Oct 03 2020 10:15:34 GMT-0500 (Central Daylight Time)","Sat Oct 03 2020 10:44:15 GMT-0500 (Central Daylight Time)","Mozilla/5.0 (Windows NT 10.0; Win64; x64) AppleWebKit/537.36 (KHTML, like Gecko) Chrome/85.0.4183.121 Safari/537.36",103,"[0.9, 0.5, 0.1]","[0.8, 0.4, 0.2]","[u'blue', u'black', u'red']","[u'left', u'middle', u'right']","[0.8, 0.4, 0.2]","[u'high', u'medium', u'low']","blue",49,"left","high","True","False",212,5500,NA
"AQV468FB908WI","Sat Oct 03 2020 10:15:34 GMT-0500 (Central Daylight Time)","Sat Oct 03 2020 10:44:15 GMT-0500 (Central Daylight Time)","Mozilla/5.0 (Windows NT 10.0; Win64; x64) AppleWebKit/537.36 (KHTML, like Gecko) Chrome/85.0.4183.121 Safari/537.36",104,"[0.9, 0.5, 0.1]","[0.8, 0.4, 0.2]","[u'blue', u'black', u'red']","[u'left', u'middle', u'right']","[0.8, 0.4, 0.2]","[u'high', u'medium', u'low']","blue",49,"left","high","True","False",304,5600,NA
"AQV468FB908WI","Sat Oct 03 2020 10:15:34 GMT-0500 (Central Daylight Time)","Sat Oct 03 2020 10:44:15 GMT-0500 (Central Daylight Time)","Mozilla/5.0 (Windows NT 10.0; Win64; x64) AppleWebKit/537.36 (KHTML, like Gecko) Chrome/85.0.4183.121 Safari/537.36",105,"[0.9, 0.5, 0.1]","[0.8, 0.4, 0.2]","[u'blue', u'black', u'red']","[u'left', u'middle', u'right']","[0.8, 0.4, 0.2]","[u'high', u'medium', u'low']","blue",49,"left","high","True","False",265,5700,NA
"AQV468FB908WI","Sat Oct 03 2020 10:15:34 GMT-0500 (Central Daylight Time)","Sat Oct 03 2020 10:44:15 GMT-0500 (Central Daylight Time)","Mozilla/5.0 (Windows NT 10.0; Win64; x64) AppleWebKit/537.36 (KHTML, like Gecko) Chrome/85.0.4183.121 Safari/537.36",106,"[0.9, 0.5, 0.1]","[0.8, 0.4, 0.2]","[u'blue', u'black', u'red']","[u'left', u'middle', u'right']","[0.8, 0.4, 0.2]","[u'high', u'medium', u'low']","blue",49,"left","high","True","False",219,5800,NA
"AQV468FB908WI","Sat Oct 03 2020 10:15:34 GMT-0500 (Central Daylight Time)","Sat Oct 03 2020 10:44:15 GMT-0500 (Central Daylight Time)","Mozilla/5.0 (Windows NT 10.0; Win64; x64) AppleWebKit/537.36 (KHTML, like Gecko) Chrome/85.0.4183.121 Safari/537.36",107,"[0.9, 0.5, 0.1]","[0.8, 0.4, 0.2]","[u'blue', u'black', u'red']","[u'left', u'middle', u'right']","[0.8, 0.4, 0.2]","[u'high', u'medium', u'low']","blue",49,"left","high","False","False",275,5750,NA
"AQV468FB908WI","Sat Oct 03 2020 10:15:34 GMT-0500 (Central Daylight Time)","Sat Oct 03 2020 10:44:15 GMT-0500 (Central Daylight Time)","Mozilla/5.0 (Windows NT 10.0; Win64; x64) AppleWebKit/537.36 (KHTML, like Gecko) Chrome/85.0.4183.121 Safari/537.36",108,"[0.9, 0.5, 0.1]","[0.8, 0.4, 0.2]","[u'blue', u'black', u'red']","[u'left', u'middle', u'right']","[0.8, 0.4, 0.2]","[u'high', u'medium', u'low']","blue",49,"left","high","True","False",244,5850,NA
"AQV468FB908WI","Sat Oct 03 2020 10:15:34 GMT-0500 (Central Daylight Time)","Sat Oct 03 2020 10:44:15 GMT-0500 (Central Daylight Time)","Mozilla/5.0 (Windows NT 10.0; Win64; x64) AppleWebKit/537.36 (KHTML, like Gecko) Chrome/85.0.4183.121 Safari/537.36",109,"[0.9, 0.5, 0.1]","[0.8, 0.4, 0.2]","[u'blue', u'black', u'red']","[u'left', u'middle', u'right']","[0.8, 0.4, 0.2]","[u'high', u'medium', u'low']","black",50,"middle","medium","True","False",348,5950,NA
"AQV468FB908WI","Sat Oct 03 2020 10:15:34 GMT-0500 (Central Daylight Time)","Sat Oct 03 2020 10:44:15 GMT-0500 (Central Daylight Time)","Mozilla/5.0 (Windows NT 10.0; Win64; x64) AppleWebKit/537.36 (KHTML, like Gecko) Chrome/85.0.4183.121 Safari/537.36",110,"[0.9, 0.5, 0.1]","[0.8, 0.4, 0.2]","[u'blue', u'black', u'red']","[u'left', u'middle', u'right']","[0.8, 0.4, 0.2]","[u'high', u'medium', u'low']","black",50,"middle","medium","True","False",301,6050,NA
"AQV468FB908WI","Sat Oct 03 2020 10:15:34 GMT-0500 (Central Daylight Time)","Sat Oct 03 2020 10:44:15 GMT-0500 (Central Daylight Time)","Mozilla/5.0 (Windows NT 10.0; Win64; x64) AppleWebKit/537.36 (KHTML, like Gecko) Chrome/85.0.4183.121 Safari/537.36",111,"[0.9, 0.5, 0.1]","[0.8, 0.4, 0.2]","[u'blue', u'black', u'red']","[u'left', u'middle', u'right']","[0.8, 0.4, 0.2]","[u'high', u'medium', u'low']","blue",49,"left","high","True","False",535,6150,NA
"AQV468FB908WI","Sat Oct 03 2020 10:15:34 GMT-0500 (Central Daylight Time)","Sat Oct 03 2020 10:44:15 GMT-0500 (Central Daylight Time)","Mozilla/5.0 (Windows NT 10.0; Win64; x64) AppleWebKit/537.36 (KHTML, like Gecko) Chrome/85.0.4183.121 Safari/537.36",112,"[0.9, 0.5, 0.1]","[0.8, 0.4, 0.2]","[u'blue', u'black', u'red']","[u'left', u'middle', u'right']","[0.8, 0.4, 0.2]","[u'high', u'medium', u'low']","blue",49,"left","high","True","False",214,6250,NA
"AQV468FB908WI","Sat Oct 03 2020 10:15:34 GMT-0500 (Central Daylight Time)","Sat Oct 03 2020 10:44:15 GMT-0500 (Central Daylight Time)","Mozilla/5.0 (Windows NT 10.0; Win64; x64) AppleWebKit/537.36 (KHTML, like Gecko) Chrome/85.0.4183.121 Safari/537.36",113,"[0.9, 0.5, 0.1]","[0.8, 0.4, 0.2]","[u'blue', u'black', u'red']","[u'left', u'middle', u'right']","[0.8, 0.4, 0.2]","[u'high', u'medium', u'low']","blue",49,"left","high","True","False",206,6350,NA
"AQV468FB908WI","Sat Oct 03 2020 10:15:34 GMT-0500 (Central Daylight Time)","Sat Oct 03 2020 10:44:15 GMT-0500 (Central Daylight Time)","Mozilla/5.0 (Windows NT 10.0; Win64; x64) AppleWebKit/537.36 (KHTML, like Gecko) Chrome/85.0.4183.121 Safari/537.36",114,"[0.9, 0.5, 0.1]","[0.8, 0.4, 0.2]","[u'blue', u'black', u'red']","[u'left', u'middle', u'right']","[0.8, 0.4, 0.2]","[u'high', u'medium', u'low']","blue",49,"left","high","True","False",300,6450,NA
"AQV468FB908WI","Sat Oct 03 2020 10:15:34 GMT-0500 (Central Daylight Time)","Sat Oct 03 2020 10:44:15 GMT-0500 (Central Daylight Time)","Mozilla/5.0 (Windows NT 10.0; Win64; x64) AppleWebKit/537.36 (KHTML, like Gecko) Chrome/85.0.4183.121 Safari/537.36",115,"[0.9, 0.5, 0.1]","[0.8, 0.4, 0.2]","[u'blue', u'black', u'red']","[u'left', u'middle', u'right']","[0.8, 0.4, 0.2]","[u'high', u'medium', u'low']","blue",49,"left","high","True","False",202,6550,NA
"AQV468FB908WI","Sat Oct 03 2020 10:15:34 GMT-0500 (Central Daylight Time)","Sat Oct 03 2020 10:44:15 GMT-0500 (Central Daylight Time)","Mozilla/5.0 (Windows NT 10.0; Win64; x64) AppleWebKit/537.36 (KHTML, like Gecko) Chrome/85.0.4183.121 Safari/537.36",116,"[0.9, 0.5, 0.1]","[0.8, 0.4, 0.2]","[u'blue', u'black', u'red']","[u'left', u'middle', u'right']","[0.8, 0.4, 0.2]","[u'high', u'medium', u'low']","blue",49,"left","high","True","False",849,6650,NA
"AQV468FB908WI","Sat Oct 03 2020 10:15:34 GMT-0500 (Central Daylight Time)","Sat Oct 03 2020 10:44:15 GMT-0500 (Central Daylight Time)","Mozilla/5.0 (Windows NT 10.0; Win64; x64) AppleWebKit/537.36 (KHTML, like Gecko) Chrome/85.0.4183.121 Safari/537.36",117,"[0.9, 0.5, 0.1]","[0.8, 0.4, 0.2]","[u'blue', u'black', u'red']","[u'left', u'middle', u'right']","[0.8, 0.4, 0.2]","[u'high', u'medium', u'low']","blue",49,"left","high","False","False",223,6600,NA
"AQV468FB908WI","Sat Oct 03 2020 10:15:34 GMT-0500 (Central Daylight Time)","Sat Oct 03 2020 10:44:15 GMT-0500 (Central Daylight Time)","Mozilla/5.0 (Windows NT 10.0; Win64; x64) AppleWebKit/537.36 (KHTML, like Gecko) Chrome/85.0.4183.121 Safari/537.36",118,"[0.9, 0.5, 0.1]","[0.8, 0.4, 0.2]","[u'blue', u'black', u'red']","[u'left', u'middle', u'right']","[0.8, 0.4, 0.2]","[u'high', u'medium', u'low']","black",50,"middle","medium","True","False",225,6700,NA
"AQV468FB908WI","Sat Oct 03 2020 10:15:34 GMT-0500 (Central Daylight Time)","Sat Oct 03 2020 10:44:15 GMT-0500 (Central Daylight Time)","Mozilla/5.0 (Windows NT 10.0; Win64; x64) AppleWebKit/537.36 (KHTML, like Gecko) Chrome/85.0.4183.121 Safari/537.36",119,"[0.9, 0.5, 0.1]","[0.8, 0.4, 0.2]","[u'blue', u'black', u'red']","[u'left', u'middle', u'right']","[0.8, 0.4, 0.2]","[u'high', u'medium', u'low']","black",50,"middle","medium","True","False",249,6800,NA
"AQV468FB908WI","Sat Oct 03 2020 10:15:34 GMT-0500 (Central Daylight Time)","Sat Oct 03 2020 10:44:15 GMT-0500 (Central Daylight Time)","Mozilla/5.0 (Windows NT 10.0; Win64; x64) AppleWebKit/537.36 (KHTML, like Gecko) Chrome/85.0.4183.121 Safari/537.36",120,"[0.9, 0.5, 0.1]","[0.8, 0.4, 0.2]","[u'blue', u'black', u'red']","[u'left', u'middle', u'right']","[0.8, 0.4, 0.2]","[u'high', u'medium', u'low']","black",50,"middle","medium","True","False",237,6900,NA
"AQV468FB908WI","Sat Oct 03 2020 10:15:34 GMT-0500 (Central Daylight Time)","Sat Oct 03 2020 10:44:15 GMT-0500 (Central Daylight Time)","Mozilla/5.0 (Windows NT 10.0; Win64; x64) AppleWebKit/537.36 (KHTML, like Gecko) Chrome/85.0.4183.121 Safari/537.36",121,"[0.9, 0.5, 0.1]","[0.8, 0.4, 0.2]","[u'blue', u'black', u'red']","[u'left', u'middle', u'right']","[0.8, 0.4, 0.2]","[u'medium', u'low', u'high']","black",50,"middle","low","False","False",481,6850,NA
"AQV468FB908WI","Sat Oct 03 2020 10:15:34 GMT-0500 (Central Daylight Time)","Sat Oct 03 2020 10:44:15 GMT-0500 (Central Daylight Time)","Mozilla/5.0 (Windows NT 10.0; Win64; x64) AppleWebKit/537.36 (KHTML, like Gecko) Chrome/85.0.4183.121 Safari/537.36",122,"[0.9, 0.5, 0.1]","[0.8, 0.4, 0.2]","[u'blue', u'black', u'red']","[u'left', u'middle', u'right']","[0.8, 0.4, 0.2]","[u'medium', u'low', u'high']","blue",49,"left","medium","False","False",209,6800,NA
"AQV468FB908WI","Sat Oct 03 2020 10:15:34 GMT-0500 (Central Daylight Time)","Sat Oct 03 2020 10:44:15 GMT-0500 (Central Daylight Time)","Mozilla/5.0 (Windows NT 10.0; Win64; x64) AppleWebKit/537.36 (KHTML, like Gecko) Chrome/85.0.4183.121 Safari/537.36",123,"[0.9, 0.5, 0.1]","[0.8, 0.4, 0.2]","[u'blue', u'black', u'red']","[u'left', u'middle', u'right']","[0.8, 0.4, 0.2]","[u'medium', u'low', u'high']","red",51,"right","high","True","False",226,6900,NA
"AQV468FB908WI","Sat Oct 03 2020 10:15:34 GMT-0500 (Central Daylight Time)","Sat Oct 03 2020 10:44:15 GMT-0500 (Central Daylight Time)","Mozilla/5.0 (Windows NT 10.0; Win64; x64) AppleWebKit/537.36 (KHTML, like Gecko) Chrome/85.0.4183.121 Safari/537.36",124,"[0.9, 0.5, 0.1]","[0.8, 0.4, 0.2]","[u'blue', u'black', u'red']","[u'left', u'middle', u'right']","[0.8, 0.4, 0.2]","[u'medium', u'low', u'high']","red",51,"right","high","False","False",344,6850,NA
"AQV468FB908WI","Sat Oct 03 2020 10:15:34 GMT-0500 (Central Daylight Time)","Sat Oct 03 2020 10:44:15 GMT-0500 (Central Daylight Time)","Mozilla/5.0 (Windows NT 10.0; Win64; x64) AppleWebKit/537.36 (KHTML, like Gecko) Chrome/85.0.4183.121 Safari/537.36",125,"[0.9, 0.5, 0.1]","[0.8, 0.4, 0.2]","[u'blue', u'black', u'red']","[u'left', u'middle', u'right']","[0.8, 0.4, 0.2]","[u'medium', u'low', u'high']","red",51,"right","high","True","False",241,6950,NA
"AQV468FB908WI","Sat Oct 03 2020 10:15:34 GMT-0500 (Central Daylight Time)","Sat Oct 03 2020 10:44:15 GMT-0500 (Central Daylight Time)","Mozilla/5.0 (Windows NT 10.0; Win64; x64) AppleWebKit/537.36 (KHTML, like Gecko) Chrome/85.0.4183.121 Safari/537.36",126,"[0.9, 0.5, 0.1]","[0.8, 0.4, 0.2]","[u'blue', u'black', u'red']","[u'left', u'middle', u'right']","[0.8, 0.4, 0.2]","[u'medium', u'low', u'high']","red",51,"right","high","True","False",218,7050,NA
"AQV468FB908WI","Sat Oct 03 2020 10:15:34 GMT-0500 (Central Daylight Time)","Sat Oct 03 2020 10:44:15 GMT-0500 (Central Daylight Time)","Mozilla/5.0 (Windows NT 10.0; Win64; x64) AppleWebKit/537.36 (KHTML, like Gecko) Chrome/85.0.4183.121 Safari/537.36",127,"[0.9, 0.5, 0.1]","[0.8, 0.4, 0.2]","[u'blue', u'black', u'red']","[u'left', u'middle', u'right']","[0.8, 0.4, 0.2]","[u'medium', u'low', u'high']","red",51,"right","high","True","False",219,7150,NA
"AQV468FB908WI","Sat Oct 03 2020 10:15:34 GMT-0500 (Central Daylight Time)","Sat Oct 03 2020 10:44:15 GMT-0500 (Central Daylight Time)","Mozilla/5.0 (Windows NT 10.0; Win64; x64) AppleWebKit/537.36 (KHTML, like Gecko) Chrome/85.0.4183.121 Safari/537.36",128,"[0.9, 0.5, 0.1]","[0.8, 0.4, 0.2]","[u'blue', u'black', u'red']","[u'left', u'middle', u'right']","[0.8, 0.4, 0.2]","[u'medium', u'low', u'high']","red",51,"right","high","False","False",180,7100,NA
"AQV468FB908WI","Sat Oct 03 2020 10:15:34 GMT-0500 (Central Daylight Time)","Sat Oct 03 2020 10:44:15 GMT-0500 (Central Daylight Time)","Mozilla/5.0 (Windows NT 10.0; Win64; x64) AppleWebKit/537.36 (KHTML, like Gecko) Chrome/85.0.4183.121 Safari/537.36",129,"[0.9, 0.5, 0.1]","[0.8, 0.4, 0.2]","[u'blue', u'black', u'red']","[u'left', u'middle', u'right']","[0.8, 0.4, 0.2]","[u'medium', u'low', u'high']","red",51,"right","high","True","False",247,7200,NA
"AQV468FB908WI","Sat Oct 03 2020 10:15:34 GMT-0500 (Central Daylight Time)","Sat Oct 03 2020 10:44:15 GMT-0500 (Central Daylight Time)","Mozilla/5.0 (Windows NT 10.0; Win64; x64) AppleWebKit/537.36 (KHTML, like Gecko) Chrome/85.0.4183.121 Safari/537.36",130,"[0.9, 0.5, 0.1]","[0.8, 0.4, 0.2]","[u'blue', u'black', u'red']","[u'left', u'middle', u'right']","[0.8, 0.4, 0.2]","[u'medium', u'low', u'high']","red",51,"right","high","True","False",253,7300,NA
"AQV468FB908WI","Sat Oct 03 2020 10:15:34 GMT-0500 (Central Daylight Time)","Sat Oct 03 2020 10:44:15 GMT-0500 (Central Daylight Time)","Mozilla/5.0 (Windows NT 10.0; Win64; x64) AppleWebKit/537.36 (KHTML, like Gecko) Chrome/85.0.4183.121 Safari/537.36",131,"[0.9, 0.5, 0.1]","[0.8, 0.4, 0.2]","[u'blue', u'black', u'red']","[u'left', u'middle', u'right']","[0.8, 0.4, 0.2]","[u'medium', u'low', u'high']","red",51,"right","high","True","True",242,7400,NA
"AQV468FB908WI","Sat Oct 03 2020 10:15:34 GMT-0500 (Central Daylight Time)","Sat Oct 03 2020 10:44:15 GMT-0500 (Central Daylight Time)","Mozilla/5.0 (Windows NT 10.0; Win64; x64) AppleWebKit/537.36 (KHTML, like Gecko) Chrome/85.0.4183.121 Safari/537.36",132,"[0.9, 0.5, 0.1]","[0.8, 0.4, 0.2]","[u'blue', u'black', u'red']","[u'left', u'middle', u'right']","[0.8, 0.4, 0.2]","[u'medium', u'high', u'low']","red",51,"right","low","True","False",280,7500,NA
"AQV468FB908WI","Sat Oct 03 2020 10:15:34 GMT-0500 (Central Daylight Time)","Sat Oct 03 2020 10:44:15 GMT-0500 (Central Daylight Time)","Mozilla/5.0 (Windows NT 10.0; Win64; x64) AppleWebKit/537.36 (KHTML, like Gecko) Chrome/85.0.4183.121 Safari/537.36",133,"[0.9, 0.5, 0.1]","[0.8, 0.4, 0.2]","[u'blue', u'black', u'red']","[u'left', u'middle', u'right']","[0.8, 0.4, 0.2]","[u'medium', u'high', u'low']","red",51,"right","low","False","False",237,7450,NA
"AQV468FB908WI","Sat Oct 03 2020 10:15:34 GMT-0500 (Central Daylight Time)","Sat Oct 03 2020 10:44:15 GMT-0500 (Central Daylight Time)","Mozilla/5.0 (Windows NT 10.0; Win64; x64) AppleWebKit/537.36 (KHTML, like Gecko) Chrome/85.0.4183.121 Safari/537.36",134,"[0.9, 0.5, 0.1]","[0.8, 0.4, 0.2]","[u'blue', u'black', u'red']","[u'left', u'middle', u'right']","[0.8, 0.4, 0.2]","[u'medium', u'high', u'low']","black",50,"middle","high","True","False",492,7550,NA
"AQV468FB908WI","Sat Oct 03 2020 10:15:34 GMT-0500 (Central Daylight Time)","Sat Oct 03 2020 10:44:15 GMT-0500 (Central Daylight Time)","Mozilla/5.0 (Windows NT 10.0; Win64; x64) AppleWebKit/537.36 (KHTML, like Gecko) Chrome/85.0.4183.121 Safari/537.36",135,"[0.9, 0.5, 0.1]","[0.8, 0.4, 0.2]","[u'blue', u'black', u'red']","[u'left', u'middle', u'right']","[0.8, 0.4, 0.2]","[u'medium', u'high', u'low']","black",50,"middle","high","False","False",235,7500,NA
"AQV468FB908WI","Sat Oct 03 2020 10:15:34 GMT-0500 (Central Daylight Time)","Sat Oct 03 2020 10:44:15 GMT-0500 (Central Daylight Time)","Mozilla/5.0 (Windows NT 10.0; Win64; x64) AppleWebKit/537.36 (KHTML, like Gecko) Chrome/85.0.4183.121 Safari/537.36",136,"[0.9, 0.5, 0.1]","[0.8, 0.4, 0.2]","[u'blue', u'black', u'red']","[u'left', u'middle', u'right']","[0.8, 0.4, 0.2]","[u'medium', u'high', u'low']","blue",49,"left","medium","False","False",198,7450,NA
"AQV468FB908WI","Sat Oct 03 2020 10:15:34 GMT-0500 (Central Daylight Time)","Sat Oct 03 2020 10:44:15 GMT-0500 (Central Daylight Time)","Mozilla/5.0 (Windows NT 10.0; Win64; x64) AppleWebKit/537.36 (KHTML, like Gecko) Chrome/85.0.4183.121 Safari/537.36",137,"[0.9, 0.5, 0.1]","[0.8, 0.4, 0.2]","[u'blue', u'black', u'red']","[u'left', u'middle', u'right']","[0.8, 0.4, 0.2]","[u'medium', u'high', u'low']","blue",49,"left","medium","False","False",171,7400,NA
"AQV468FB908WI","Sat Oct 03 2020 10:15:34 GMT-0500 (Central Daylight Time)","Sat Oct 03 2020 10:44:15 GMT-0500 (Central Daylight Time)","Mozilla/5.0 (Windows NT 10.0; Win64; x64) AppleWebKit/537.36 (KHTML, like Gecko) Chrome/85.0.4183.121 Safari/537.36",138,"[0.9, 0.5, 0.1]","[0.8, 0.4, 0.2]","[u'blue', u'black', u'red']","[u'left', u'middle', u'right']","[0.8, 0.4, 0.2]","[u'medium', u'high', u'low']","red",51,"right","low","False","False",213,7350,NA
"AQV468FB908WI","Sat Oct 03 2020 10:15:34 GMT-0500 (Central Daylight Time)","Sat Oct 03 2020 10:44:15 GMT-0500 (Central Daylight Time)","Mozilla/5.0 (Windows NT 10.0; Win64; x64) AppleWebKit/537.36 (KHTML, like Gecko) Chrome/85.0.4183.121 Safari/537.36",139,"[0.9, 0.5, 0.1]","[0.8, 0.4, 0.2]","[u'blue', u'black', u'red']","[u'left', u'middle', u'right']","[0.8, 0.4, 0.2]","[u'medium', u'high', u'low']","red",51,"right","low","False","False",201,7300,NA
"AQV468FB908WI","Sat Oct 03 2020 10:15:34 GMT-0500 (Central Daylight Time)","Sat Oct 03 2020 10:44:15 GMT-0500 (Central Daylight Time)","Mozilla/5.0 (Windows NT 10.0; Win64; x64) AppleWebKit/537.36 (KHTML, like Gecko) Chrome/85.0.4183.121 Safari/537.36",140,"[0.9, 0.5, 0.1]","[0.8, 0.4, 0.2]","[u'blue', u'black', u'red']","[u'left', u'middle', u'right']","[0.8, 0.4, 0.2]","[u'medium', u'high', u'low']","black",50,"middle","high","True","False",138,7400,NA
"AQV468FB908WI","Sat Oct 03 2020 10:15:34 GMT-0500 (Central Daylight Time)","Sat Oct 03 2020 10:44:15 GMT-0500 (Central Daylight Time)","Mozilla/5.0 (Windows NT 10.0; Win64; x64) AppleWebKit/537.36 (KHTML, like Gecko) Chrome/85.0.4183.121 Safari/537.36",141,"[0.9, 0.5, 0.1]","[0.8, 0.4, 0.2]","[u'blue', u'black', u'red']","[u'left', u'middle', u'right']","[0.8, 0.4, 0.2]","[u'medium', u'high', u'low']","black",50,"middle","high","False","False",206,7350,NA
"AQV468FB908WI","Sat Oct 03 2020 10:15:34 GMT-0500 (Central Daylight Time)","Sat Oct 03 2020 10:44:15 GMT-0500 (Central Daylight Time)","Mozilla/5.0 (Windows NT 10.0; Win64; x64) AppleWebKit/537.36 (KHTML, like Gecko) Chrome/85.0.4183.121 Safari/537.36",142,"[0.9, 0.5, 0.1]","[0.8, 0.4, 0.2]","[u'blue', u'black', u'red']","[u'left', u'middle', u'right']","[0.8, 0.4, 0.2]","[u'medium', u'high', u'low']","black",50,"middle","high","True","False",237,7450,NA
"AQV468FB908WI","Sat Oct 03 2020 10:15:34 GMT-0500 (Central Daylight Time)","Sat Oct 03 2020 10:44:15 GMT-0500 (Central Daylight Time)","Mozilla/5.0 (Windows NT 10.0; Win64; x64) AppleWebKit/537.36 (KHTML, like Gecko) Chrome/85.0.4183.121 Safari/537.36",143,"[0.9, 0.5, 0.1]","[0.8, 0.4, 0.2]","[u'blue', u'black', u'red']","[u'left', u'middle', u'right']","[0.8, 0.4, 0.2]","[u'medium', u'high', u'low']","black",50,"middle","high","True","False",244,7550,NA
"AQV468FB908WI","Sat Oct 03 2020 10:15:34 GMT-0500 (Central Daylight Time)","Sat Oct 03 2020 10:44:15 GMT-0500 (Central Daylight Time)","Mozilla/5.0 (Windows NT 10.0; Win64; x64) AppleWebKit/537.36 (KHTML, like Gecko) Chrome/85.0.4183.121 Safari/537.36",144,"[0.9, 0.5, 0.1]","[0.8, 0.4, 0.2]","[u'blue', u'black', u'red']","[u'left', u'middle', u'right']","[0.8, 0.4, 0.2]","[u'medium', u'high', u'low']","black",50,"middle","high","True","False",210,7650,NA
"AQV468FB908WI","Sat Oct 03 2020 10:15:34 GMT-0500 (Central Daylight Time)","Sat Oct 03 2020 10:44:15 GMT-0500 (Central Daylight Time)","Mozilla/5.0 (Windows NT 10.0; Win64; x64) AppleWebKit/537.36 (KHTML, like Gecko) Chrome/85.0.4183.121 Safari/537.36",145,"[0.9, 0.5, 0.1]","[0.8, 0.4, 0.2]","[u'blue', u'black', u'red']","[u'left', u'middle', u'right']","[0.8, 0.4, 0.2]","[u'medium', u'high', u'low']","black",50,"middle","high","True","False",249,7750,NA
"AQV468FB908WI","Sat Oct 03 2020 10:15:34 GMT-0500 (Central Daylight Time)","Sat Oct 03 2020 10:44:15 GMT-0500 (Central Daylight Time)","Mozilla/5.0 (Windows NT 10.0; Win64; x64) AppleWebKit/537.36 (KHTML, like Gecko) Chrome/85.0.4183.121 Safari/537.36",146,"[0.9, 0.5, 0.1]","[0.8, 0.4, 0.2]","[u'blue', u'black', u'red']","[u'left', u'middle', u'right']","[0.8, 0.4, 0.2]","[u'medium', u'high', u'low']","black",50,"middle","high","True","False",211,7850,NA
"AQV468FB908WI","Sat Oct 03 2020 10:15:34 GMT-0500 (Central Daylight Time)","Sat Oct 03 2020 10:44:15 GMT-0500 (Central Daylight Time)","Mozilla/5.0 (Windows NT 10.0; Win64; x64) AppleWebKit/537.36 (KHTML, like Gecko) Chrome/85.0.4183.121 Safari/537.36",147,"[0.9, 0.5, 0.1]","[0.8, 0.4, 0.2]","[u'blue', u'black', u'red']","[u'left', u'middle', u'right']","[0.8, 0.4, 0.2]","[u'medium', u'high', u'low']","black",50,"middle","high","True","False",231,7950,NA
"AQV468FB908WI","Sat Oct 03 2020 10:15:34 GMT-0500 (Central Daylight Time)","Sat Oct 03 2020 10:44:15 GMT-0500 (Central Daylight Time)","Mozilla/5.0 (Windows NT 10.0; Win64; x64) AppleWebKit/537.36 (KHTML, like Gecko) Chrome/85.0.4183.121 Safari/537.36",148,"[0.9, 0.5, 0.1]","[0.8, 0.4, 0.2]","[u'blue', u'black', u'red']","[u'left', u'middle', u'right']","[0.8, 0.4, 0.2]","[u'medium', u'high', u'low']","black",50,"middle","high","True","True",237,8050,NA
"AQV468FB908WI","Sat Oct 03 2020 10:15:34 GMT-0500 (Central Daylight Time)","Sat Oct 03 2020 10:44:15 GMT-0500 (Central Daylight Time)","Mozilla/5.0 (Windows NT 10.0; Win64; x64) AppleWebKit/537.36 (KHTML, like Gecko) Chrome/85.0.4183.121 Safari/537.36",149,"[0.9, 0.5, 0.1]","[0.8, 0.4, 0.2]","[u'blue', u'black', u'red']","[u'left', u'middle', u'right']","[0.8, 0.4, 0.2]","[u'low', u'medium', u'high']","black",50,"middle","medium","True","False",204,8150,NA
"AQV468FB908WI","Sat Oct 03 2020 10:15:34 GMT-0500 (Central Daylight Time)","Sat Oct 03 2020 10:44:15 GMT-0500 (Central Daylight Time)","Mozilla/5.0 (Windows NT 10.0; Win64; x64) AppleWebKit/537.36 (KHTML, like Gecko) Chrome/85.0.4183.121 Safari/537.36",150,"[0.9, 0.5, 0.1]","[0.8, 0.4, 0.2]","[u'blue', u'black', u'red']","[u'left', u'middle', u'right']","[0.8, 0.4, 0.2]","[u'low', u'medium', u'high']","black",50,"middle","medium","True","False",233,8250,NA
"AQV468FB908WI","Sat Oct 03 2020 10:15:34 GMT-0500 (Central Daylight Time)","Sat Oct 03 2020 10:44:15 GMT-0500 (Central Daylight Time)","Mozilla/5.0 (Windows NT 10.0; Win64; x64) AppleWebKit/537.36 (KHTML, like Gecko) Chrome/85.0.4183.121 Safari/537.36",151,"[0.9, 0.5, 0.1]","[0.8, 0.4, 0.2]","[u'blue', u'black', u'red']","[u'left', u'middle', u'right']","[0.8, 0.4, 0.2]","[u'low', u'medium', u'high']","black",50,"middle","medium","True","False",246,8350,NA
"AQV468FB908WI","Sat Oct 03 2020 10:15:34 GMT-0500 (Central Daylight Time)","Sat Oct 03 2020 10:44:15 GMT-0500 (Central Daylight Time)","Mozilla/5.0 (Windows NT 10.0; Win64; x64) AppleWebKit/537.36 (KHTML, like Gecko) Chrome/85.0.4183.121 Safari/537.36",152,"[0.9, 0.5, 0.1]","[0.8, 0.4, 0.2]","[u'blue', u'black', u'red']","[u'left', u'middle', u'right']","[0.8, 0.4, 0.2]","[u'low', u'medium', u'high']","black",50,"middle","medium","True","False",228,8450,NA
"AQV468FB908WI","Sat Oct 03 2020 10:15:34 GMT-0500 (Central Daylight Time)","Sat Oct 03 2020 10:44:15 GMT-0500 (Central Daylight Time)","Mozilla/5.0 (Windows NT 10.0; Win64; x64) AppleWebKit/537.36 (KHTML, like Gecko) Chrome/85.0.4183.121 Safari/537.36",153,"[0.9, 0.5, 0.1]","[0.8, 0.4, 0.2]","[u'blue', u'black', u'red']","[u'left', u'middle', u'right']","[0.8, 0.4, 0.2]","[u'low', u'medium', u'high']","black",50,"middle","medium","True","False",237,8550,NA
"AQV468FB908WI","Sat Oct 03 2020 10:15:34 GMT-0500 (Central Daylight Time)","Sat Oct 03 2020 10:44:15 GMT-0500 (Central Daylight Time)","Mozilla/5.0 (Windows NT 10.0; Win64; x64) AppleWebKit/537.36 (KHTML, like Gecko) Chrome/85.0.4183.121 Safari/537.36",154,"[0.9, 0.5, 0.1]","[0.8, 0.4, 0.2]","[u'blue', u'black', u'red']","[u'left', u'middle', u'right']","[0.8, 0.4, 0.2]","[u'low', u'medium', u'high']","black",50,"middle","medium","False","False",298,8500,NA
"AQV468FB908WI","Sat Oct 03 2020 10:15:34 GMT-0500 (Central Daylight Time)","Sat Oct 03 2020 10:44:15 GMT-0500 (Central Daylight Time)","Mozilla/5.0 (Windows NT 10.0; Win64; x64) AppleWebKit/537.36 (KHTML, like Gecko) Chrome/85.0.4183.121 Safari/537.36",155,"[0.9, 0.5, 0.1]","[0.8, 0.4, 0.2]","[u'blue', u'black', u'red']","[u'left', u'middle', u'right']","[0.8, 0.4, 0.2]","[u'low', u'medium', u'high']","black",50,"middle","medium","False","False",339,8450,NA
"AQV468FB908WI","Sat Oct 03 2020 10:15:34 GMT-0500 (Central Daylight Time)","Sat Oct 03 2020 10:44:15 GMT-0500 (Central Daylight Time)","Mozilla/5.0 (Windows NT 10.0; Win64; x64) AppleWebKit/537.36 (KHTML, like Gecko) Chrome/85.0.4183.121 Safari/537.36",156,"[0.9, 0.5, 0.1]","[0.8, 0.4, 0.2]","[u'blue', u'black', u'red']","[u'left', u'middle', u'right']","[0.8, 0.4, 0.2]","[u'low', u'medium', u'high']","black",50,"middle","medium","False","False",375,8400,NA
"AQV468FB908WI","Sat Oct 03 2020 10:15:34 GMT-0500 (Central Daylight Time)","Sat Oct 03 2020 10:44:15 GMT-0500 (Central Daylight Time)","Mozilla/5.0 (Windows NT 10.0; Win64; x64) AppleWebKit/537.36 (KHTML, like Gecko) Chrome/85.0.4183.121 Safari/537.36",157,"[0.9, 0.5, 0.1]","[0.8, 0.4, 0.2]","[u'blue', u'black', u'red']","[u'left', u'middle', u'right']","[0.8, 0.4, 0.2]","[u'low', u'medium', u'high']","red",51,"right","high","True","False",129,8500,NA
"AQV468FB908WI","Sat Oct 03 2020 10:15:34 GMT-0500 (Central Daylight Time)","Sat Oct 03 2020 10:44:15 GMT-0500 (Central Daylight Time)","Mozilla/5.0 (Windows NT 10.0; Win64; x64) AppleWebKit/537.36 (KHTML, like Gecko) Chrome/85.0.4183.121 Safari/537.36",158,"[0.9, 0.5, 0.1]","[0.8, 0.4, 0.2]","[u'blue', u'black', u'red']","[u'left', u'middle', u'right']","[0.8, 0.4, 0.2]","[u'low', u'medium', u'high']","red",51,"right","high","False","False",173,8450,NA
"AQV468FB908WI","Sat Oct 03 2020 10:15:34 GMT-0500 (Central Daylight Time)","Sat Oct 03 2020 10:44:15 GMT-0500 (Central Daylight Time)","Mozilla/5.0 (Windows NT 10.0; Win64; x64) AppleWebKit/537.36 (KHTML, like Gecko) Chrome/85.0.4183.121 Safari/537.36",159,"[0.9, 0.5, 0.1]","[0.8, 0.4, 0.2]","[u'blue', u'black', u'red']","[u'left', u'middle', u'right']","[0.8, 0.4, 0.2]","[u'low', u'medium', u'high']","red",51,"right","high","True","False",81,8550,NA
"AQV468FB908WI","Sat Oct 03 2020 10:15:34 GMT-0500 (Central Daylight Time)","Sat Oct 03 2020 10:44:15 GMT-0500 (Central Daylight Time)","Mozilla/5.0 (Windows NT 10.0; Win64; x64) AppleWebKit/537.36 (KHTML, like Gecko) Chrome/85.0.4183.121 Safari/537.36",160,"[0.9, 0.5, 0.1]","[0.8, 0.4, 0.2]","[u'blue', u'black', u'red']","[u'left', u'middle', u'right']","[0.8, 0.4, 0.2]","[u'low', u'medium', u'high']","red",51,"right","high","True","False",236,8650,NA
