"src_subject_id","start_time","end_time","browser","index","first_half_probabilities","second_half_probabilities","deck_color","deck_position","deck_probabilities","deck_contingencies","response_color","key_press","response_position","response_probability","reward_type","trial_type","rt","reward_tally","exclusion_reason"
"AW6O5FZEZ6EBX","Sat Oct 03 2020 08:26:25 GMT-0700 (Pacific Daylight Time)","Sat Oct 03 2020 08:35:05 GMT-0700 (Pacific Daylight Time)","Mozilla/5.0 (Windows NT 6.3; Win64; x64) AppleWebKit/537.36 (KHTML, like Gecko) Chrome/85.0.4183.121 Safari/537.36",1,"[0.9, 0.5, 0.1]","[0.8, 0.4, 0.2]","[u'blue', u'black', u'red']","[u'left', u'middle', u'right']","[0.9, 0.5, 0.1]","[u'high', u'low', u'medium']","blue",49,"left","high","True","False",4805,100,NA
"AW6O5FZEZ6EBX","Sat Oct 03 2020 08:26:25 GMT-0700 (Pacific Daylight Time)","Sat Oct 03 2020 08:35:05 GMT-0700 (Pacific Daylight Time)","Mozilla/5.0 (Windows NT 6.3; Win64; x64) AppleWebKit/537.36 (KHTML, like Gecko) Chrome/85.0.4183.121 Safari/537.36",2,"[0.9, 0.5, 0.1]","[0.8, 0.4, 0.2]","[u'blue', u'black', u'red']","[u'left', u'middle', u'right']","[0.9, 0.5, 0.1]","[u'high', u'low', u'medium']","blue",49,"left","high","True","False",2496,200,NA
"AW6O5FZEZ6EBX","Sat Oct 03 2020 08:26:25 GMT-0700 (Pacific Daylight Time)","Sat Oct 03 2020 08:35:05 GMT-0700 (Pacific Daylight Time)","Mozilla/5.0 (Windows NT 6.3; Win64; x64) AppleWebKit/537.36 (KHTML, like Gecko) Chrome/85.0.4183.121 Safari/537.36",3,"[0.9, 0.5, 0.1]","[0.8, 0.4, 0.2]","[u'blue', u'black', u'red']","[u'left', u'middle', u'right']","[0.9, 0.5, 0.1]","[u'high', u'low', u'medium']","blue",49,"left","high","True","False",457,300,NA
"AW6O5FZEZ6EBX","Sat Oct 03 2020 08:26:25 GMT-0700 (Pacific Daylight Time)","Sat Oct 03 2020 08:35:05 GMT-0700 (Pacific Daylight Time)","Mozilla/5.0 (Windows NT 6.3; Win64; x64) AppleWebKit/537.36 (KHTML, like Gecko) Chrome/85.0.4183.121 Safari/537.36",4,"[0.9, 0.5, 0.1]","[0.8, 0.4, 0.2]","[u'blue', u'black', u'red']","[u'left', u'middle', u'right']","[0.9, 0.5, 0.1]","[u'high', u'low', u'medium']","black",50,"middle","low","False","False",777,250,NA
"AW6O5FZEZ6EBX","Sat Oct 03 2020 08:26:25 GMT-0700 (Pacific Daylight Time)","Sat Oct 03 2020 08:35:05 GMT-0700 (Pacific Daylight Time)","Mozilla/5.0 (Windows NT 6.3; Win64; x64) AppleWebKit/537.36 (KHTML, like Gecko) Chrome/85.0.4183.121 Safari/537.36",5,"[0.9, 0.5, 0.1]","[0.8, 0.4, 0.2]","[u'blue', u'black', u'red']","[u'left', u'middle', u'right']","[0.9, 0.5, 0.1]","[u'high', u'low', u'medium']","red",51,"right","medium","True","False",785,350,NA
"AW6O5FZEZ6EBX","Sat Oct 03 2020 08:26:25 GMT-0700 (Pacific Daylight Time)","Sat Oct 03 2020 08:35:05 GMT-0700 (Pacific Daylight Time)","Mozilla/5.0 (Windows NT 6.3; Win64; x64) AppleWebKit/537.36 (KHTML, like Gecko) Chrome/85.0.4183.121 Safari/537.36",6,"[0.9, 0.5, 0.1]","[0.8, 0.4, 0.2]","[u'blue', u'black', u'red']","[u'left', u'middle', u'right']","[0.9, 0.5, 0.1]","[u'high', u'low', u'medium']","red",51,"right","medium","False","False",202,300,NA
"AW6O5FZEZ6EBX","Sat Oct 03 2020 08:26:25 GMT-0700 (Pacific Daylight Time)","Sat Oct 03 2020 08:35:05 GMT-0700 (Pacific Daylight Time)","Mozilla/5.0 (Windows NT 6.3; Win64; x64) AppleWebKit/537.36 (KHTML, like Gecko) Chrome/85.0.4183.121 Safari/537.36",7,"[0.9, 0.5, 0.1]","[0.8, 0.4, 0.2]","[u'blue', u'black', u'red']","[u'left', u'middle', u'right']","[0.9, 0.5, 0.1]","[u'high', u'low', u'medium']","blue",49,"left","high","True","False",183,400,NA
"AW6O5FZEZ6EBX","Sat Oct 03 2020 08:26:25 GMT-0700 (Pacific Daylight Time)","Sat Oct 03 2020 08:35:05 GMT-0700 (Pacific Daylight Time)","Mozilla/5.0 (Windows NT 6.3; Win64; x64) AppleWebKit/537.36 (KHTML, like Gecko) Chrome/85.0.4183.121 Safari/537.36",8,"[0.9, 0.5, 0.1]","[0.8, 0.4, 0.2]","[u'blue', u'black', u'red']","[u'left', u'middle', u'right']","[0.9, 0.5, 0.1]","[u'high', u'low', u'medium']","black",50,"middle","low","False","False",12,350,NA
"AW6O5FZEZ6EBX","Sat Oct 03 2020 08:26:25 GMT-0700 (Pacific Daylight Time)","Sat Oct 03 2020 08:35:05 GMT-0700 (Pacific Daylight Time)","Mozilla/5.0 (Windows NT 6.3; Win64; x64) AppleWebKit/537.36 (KHTML, like Gecko) Chrome/85.0.4183.121 Safari/537.36",9,"[0.9, 0.5, 0.1]","[0.8, 0.4, 0.2]","[u'blue', u'black', u'red']","[u'left', u'middle', u'right']","[0.9, 0.5, 0.1]","[u'high', u'low', u'medium']","blue",49,"left","high","True","False",149,450,NA
"AW6O5FZEZ6EBX","Sat Oct 03 2020 08:26:25 GMT-0700 (Pacific Daylight Time)","Sat Oct 03 2020 08:35:05 GMT-0700 (Pacific Daylight Time)","Mozilla/5.0 (Windows NT 6.3; Win64; x64) AppleWebKit/537.36 (KHTML, like Gecko) Chrome/85.0.4183.121 Safari/537.36",10,"[0.9, 0.5, 0.1]","[0.8, 0.4, 0.2]","[u'blue', u'black', u'red']","[u'left', u'middle', u'right']","[0.9, 0.5, 0.1]","[u'high', u'low', u'medium']","blue",49,"left","high","True","False",208,550,NA
"AW6O5FZEZ6EBX","Sat Oct 03 2020 08:26:25 GMT-0700 (Pacific Daylight Time)","Sat Oct 03 2020 08:35:05 GMT-0700 (Pacific Daylight Time)","Mozilla/5.0 (Windows NT 6.3; Win64; x64) AppleWebKit/537.36 (KHTML, like Gecko) Chrome/85.0.4183.121 Safari/537.36",11,"[0.9, 0.5, 0.1]","[0.8, 0.4, 0.2]","[u'blue', u'black', u'red']","[u'left', u'middle', u'right']","[0.9, 0.5, 0.1]","[u'high', u'low', u'medium']","blue",49,"left","high","True","False",300,650,NA
"AW6O5FZEZ6EBX","Sat Oct 03 2020 08:26:25 GMT-0700 (Pacific Daylight Time)","Sat Oct 03 2020 08:35:05 GMT-0700 (Pacific Daylight Time)","Mozilla/5.0 (Windows NT 6.3; Win64; x64) AppleWebKit/537.36 (KHTML, like Gecko) Chrome/85.0.4183.121 Safari/537.36",12,"[0.9, 0.5, 0.1]","[0.8, 0.4, 0.2]","[u'blue', u'black', u'red']","[u'left', u'middle', u'right']","[0.9, 0.5, 0.1]","[u'high', u'low', u'medium']","blue",49,"left","high","True","False",259,750,NA
"AW6O5FZEZ6EBX","Sat Oct 03 2020 08:26:25 GMT-0700 (Pacific Daylight Time)","Sat Oct 03 2020 08:35:05 GMT-0700 (Pacific Daylight Time)","Mozilla/5.0 (Windows NT 6.3; Win64; x64) AppleWebKit/537.36 (KHTML, like Gecko) Chrome/85.0.4183.121 Safari/537.36",13,"[0.9, 0.5, 0.1]","[0.8, 0.4, 0.2]","[u'blue', u'black', u'red']","[u'left', u'middle', u'right']","[0.9, 0.5, 0.1]","[u'high', u'low', u'medium']","blue",49,"left","high","True","False",25,850,NA
"AW6O5FZEZ6EBX","Sat Oct 03 2020 08:26:25 GMT-0700 (Pacific Daylight Time)","Sat Oct 03 2020 08:35:05 GMT-0700 (Pacific Daylight Time)","Mozilla/5.0 (Windows NT 6.3; Win64; x64) AppleWebKit/537.36 (KHTML, like Gecko) Chrome/85.0.4183.121 Safari/537.36",14,"[0.9, 0.5, 0.1]","[0.8, 0.4, 0.2]","[u'blue', u'black', u'red']","[u'left', u'middle', u'right']","[0.9, 0.5, 0.1]","[u'high', u'low', u'medium']","blue",49,"left","high","True","False",41,950,NA
"AW6O5FZEZ6EBX","Sat Oct 03 2020 08:26:25 GMT-0700 (Pacific Daylight Time)","Sat Oct 03 2020 08:35:05 GMT-0700 (Pacific Daylight Time)","Mozilla/5.0 (Windows NT 6.3; Win64; x64) AppleWebKit/537.36 (KHTML, like Gecko) Chrome/85.0.4183.121 Safari/537.36",15,"[0.9, 0.5, 0.1]","[0.8, 0.4, 0.2]","[u'blue', u'black', u'red']","[u'left', u'middle', u'right']","[0.9, 0.5, 0.1]","[u'high', u'low', u'medium']","blue",49,"left","high","True","False",75,1050,NA
"AW6O5FZEZ6EBX","Sat Oct 03 2020 08:26:25 GMT-0700 (Pacific Daylight Time)","Sat Oct 03 2020 08:35:05 GMT-0700 (Pacific Daylight Time)","Mozilla/5.0 (Windows NT 6.3; Win64; x64) AppleWebKit/537.36 (KHTML, like Gecko) Chrome/85.0.4183.121 Safari/537.36",16,"[0.9, 0.5, 0.1]","[0.8, 0.4, 0.2]","[u'blue', u'black', u'red']","[u'left', u'middle', u'right']","[0.9, 0.5, 0.1]","[u'high', u'low', u'medium']","blue",49,"left","high","True","True",1635,1150,NA
"AW6O5FZEZ6EBX","Sat Oct 03 2020 08:26:25 GMT-0700 (Pacific Daylight Time)","Sat Oct 03 2020 08:35:05 GMT-0700 (Pacific Daylight Time)","Mozilla/5.0 (Windows NT 6.3; Win64; x64) AppleWebKit/537.36 (KHTML, like Gecko) Chrome/85.0.4183.121 Safari/537.36",17,"[0.9, 0.5, 0.1]","[0.8, 0.4, 0.2]","[u'blue', u'black', u'red']","[u'left', u'middle', u'right']","[0.9, 0.5, 0.1]","[u'low', u'high', u'medium']","blue",49,"left","low","False","False",118,1100,NA
"AW6O5FZEZ6EBX","Sat Oct 03 2020 08:26:25 GMT-0700 (Pacific Daylight Time)","Sat Oct 03 2020 08:35:05 GMT-0700 (Pacific Daylight Time)","Mozilla/5.0 (Windows NT 6.3; Win64; x64) AppleWebKit/537.36 (KHTML, like Gecko) Chrome/85.0.4183.121 Safari/537.36",18,"[0.9, 0.5, 0.1]","[0.8, 0.4, 0.2]","[u'blue', u'black', u'red']","[u'left', u'middle', u'right']","[0.9, 0.5, 0.1]","[u'low', u'high', u'medium']","black",50,"middle","high","True","False",187,1200,NA
"AW6O5FZEZ6EBX","Sat Oct 03 2020 08:26:25 GMT-0700 (Pacific Daylight Time)","Sat Oct 03 2020 08:35:05 GMT-0700 (Pacific Daylight Time)","Mozilla/5.0 (Windows NT 6.3; Win64; x64) AppleWebKit/537.36 (KHTML, like Gecko) Chrome/85.0.4183.121 Safari/537.36",19,"[0.9, 0.5, 0.1]","[0.8, 0.4, 0.2]","[u'blue', u'black', u'red']","[u'left', u'middle', u'right']","[0.9, 0.5, 0.1]","[u'low', u'high', u'medium']","black",50,"middle","high","True","False",95,1300,NA
"AW6O5FZEZ6EBX","Sat Oct 03 2020 08:26:25 GMT-0700 (Pacific Daylight Time)","Sat Oct 03 2020 08:35:05 GMT-0700 (Pacific Daylight Time)","Mozilla/5.0 (Windows NT 6.3; Win64; x64) AppleWebKit/537.36 (KHTML, like Gecko) Chrome/85.0.4183.121 Safari/537.36",20,"[0.9, 0.5, 0.1]","[0.8, 0.4, 0.2]","[u'blue', u'black', u'red']","[u'left', u'middle', u'right']","[0.9, 0.5, 0.1]","[u'low', u'high', u'medium']","black",50,"middle","high","True","False",266,1400,NA
"AW6O5FZEZ6EBX","Sat Oct 03 2020 08:26:25 GMT-0700 (Pacific Daylight Time)","Sat Oct 03 2020 08:35:05 GMT-0700 (Pacific Daylight Time)","Mozilla/5.0 (Windows NT 6.3; Win64; x64) AppleWebKit/537.36 (KHTML, like Gecko) Chrome/85.0.4183.121 Safari/537.36",21,"[0.9, 0.5, 0.1]","[0.8, 0.4, 0.2]","[u'blue', u'black', u'red']","[u'left', u'middle', u'right']","[0.9, 0.5, 0.1]","[u'low', u'high', u'medium']","black",50,"middle","high","True","False",372,1500,NA
"AW6O5FZEZ6EBX","Sat Oct 03 2020 08:26:25 GMT-0700 (Pacific Daylight Time)","Sat Oct 03 2020 08:35:05 GMT-0700 (Pacific Daylight Time)","Mozilla/5.0 (Windows NT 6.3; Win64; x64) AppleWebKit/537.36 (KHTML, like Gecko) Chrome/85.0.4183.121 Safari/537.36",22,"[0.9, 0.5, 0.1]","[0.8, 0.4, 0.2]","[u'blue', u'black', u'red']","[u'left', u'middle', u'right']","[0.9, 0.5, 0.1]","[u'low', u'high', u'medium']","black",50,"middle","high","True","False",6988,1600,NA
"AW6O5FZEZ6EBX","Sat Oct 03 2020 08:26:25 GMT-0700 (Pacific Daylight Time)","Sat Oct 03 2020 08:35:05 GMT-0700 (Pacific Daylight Time)","Mozilla/5.0 (Windows NT 6.3; Win64; x64) AppleWebKit/537.36 (KHTML, like Gecko) Chrome/85.0.4183.121 Safari/537.36",23,"[0.9, 0.5, 0.1]","[0.8, 0.4, 0.2]","[u'blue', u'black', u'red']","[u'left', u'middle', u'right']","[0.9, 0.5, 0.1]","[u'low', u'high', u'medium']","black",50,"middle","high","True","False",1657,1700,NA
"AW6O5FZEZ6EBX","Sat Oct 03 2020 08:26:25 GMT-0700 (Pacific Daylight Time)","Sat Oct 03 2020 08:35:05 GMT-0700 (Pacific Daylight Time)","Mozilla/5.0 (Windows NT 6.3; Win64; x64) AppleWebKit/537.36 (KHTML, like Gecko) Chrome/85.0.4183.121 Safari/537.36",24,"[0.9, 0.5, 0.1]","[0.8, 0.4, 0.2]","[u'blue', u'black', u'red']","[u'left', u'middle', u'right']","[0.9, 0.5, 0.1]","[u'low', u'high', u'medium']","black",50,"middle","high","True","False",1324,1800,NA
"AW6O5FZEZ6EBX","Sat Oct 03 2020 08:26:25 GMT-0700 (Pacific Daylight Time)","Sat Oct 03 2020 08:35:05 GMT-0700 (Pacific Daylight Time)","Mozilla/5.0 (Windows NT 6.3; Win64; x64) AppleWebKit/537.36 (KHTML, like Gecko) Chrome/85.0.4183.121 Safari/537.36",25,"[0.9, 0.5, 0.1]","[0.8, 0.4, 0.2]","[u'blue', u'black', u'red']","[u'left', u'middle', u'right']","[0.9, 0.5, 0.1]","[u'low', u'high', u'medium']","black",50,"middle","high","True","False",1025,1900,NA
"AW6O5FZEZ6EBX","Sat Oct 03 2020 08:26:25 GMT-0700 (Pacific Daylight Time)","Sat Oct 03 2020 08:35:05 GMT-0700 (Pacific Daylight Time)","Mozilla/5.0 (Windows NT 6.3; Win64; x64) AppleWebKit/537.36 (KHTML, like Gecko) Chrome/85.0.4183.121 Safari/537.36",26,"[0.9, 0.5, 0.1]","[0.8, 0.4, 0.2]","[u'blue', u'black', u'red']","[u'left', u'middle', u'right']","[0.9, 0.5, 0.1]","[u'low', u'high', u'medium']","black",50,"middle","high","True","True",1043,2000,NA
"AW6O5FZEZ6EBX","Sat Oct 03 2020 08:26:25 GMT-0700 (Pacific Daylight Time)","Sat Oct 03 2020 08:35:05 GMT-0700 (Pacific Daylight Time)","Mozilla/5.0 (Windows NT 6.3; Win64; x64) AppleWebKit/537.36 (KHTML, like Gecko) Chrome/85.0.4183.121 Safari/537.36",27,"[0.9, 0.5, 0.1]","[0.8, 0.4, 0.2]","[u'blue', u'black', u'red']","[u'left', u'middle', u'right']","[0.9, 0.5, 0.1]","[u'low', u'medium', u'high']","black",50,"middle","medium","False","False",1139,1950,NA
"AW6O5FZEZ6EBX","Sat Oct 03 2020 08:26:25 GMT-0700 (Pacific Daylight Time)","Sat Oct 03 2020 08:35:05 GMT-0700 (Pacific Daylight Time)","Mozilla/5.0 (Windows NT 6.3; Win64; x64) AppleWebKit/537.36 (KHTML, like Gecko) Chrome/85.0.4183.121 Safari/537.36",28,"[0.9, 0.5, 0.1]","[0.8, 0.4, 0.2]","[u'blue', u'black', u'red']","[u'left', u'middle', u'right']","[0.9, 0.5, 0.1]","[u'low', u'medium', u'high']","black",50,"middle","medium","False","False",1155,1900,NA
"AW6O5FZEZ6EBX","Sat Oct 03 2020 08:26:25 GMT-0700 (Pacific Daylight Time)","Sat Oct 03 2020 08:35:05 GMT-0700 (Pacific Daylight Time)","Mozilla/5.0 (Windows NT 6.3; Win64; x64) AppleWebKit/537.36 (KHTML, like Gecko) Chrome/85.0.4183.121 Safari/537.36",29,"[0.9, 0.5, 0.1]","[0.8, 0.4, 0.2]","[u'blue', u'black', u'red']","[u'left', u'middle', u'right']","[0.9, 0.5, 0.1]","[u'low', u'medium', u'high']","black",50,"middle","medium","True","False",742,2000,NA
"AW6O5FZEZ6EBX","Sat Oct 03 2020 08:26:25 GMT-0700 (Pacific Daylight Time)","Sat Oct 03 2020 08:35:05 GMT-0700 (Pacific Daylight Time)","Mozilla/5.0 (Windows NT 6.3; Win64; x64) AppleWebKit/537.36 (KHTML, like Gecko) Chrome/85.0.4183.121 Safari/537.36",30,"[0.9, 0.5, 0.1]","[0.8, 0.4, 0.2]","[u'blue', u'black', u'red']","[u'left', u'middle', u'right']","[0.9, 0.5, 0.1]","[u'low', u'medium', u'high']","red",51,"right","high","True","False",648,2100,NA
"AW6O5FZEZ6EBX","Sat Oct 03 2020 08:26:25 GMT-0700 (Pacific Daylight Time)","Sat Oct 03 2020 08:35:05 GMT-0700 (Pacific Daylight Time)","Mozilla/5.0 (Windows NT 6.3; Win64; x64) AppleWebKit/537.36 (KHTML, like Gecko) Chrome/85.0.4183.121 Safari/537.36",31,"[0.9, 0.5, 0.1]","[0.8, 0.4, 0.2]","[u'blue', u'black', u'red']","[u'left', u'middle', u'right']","[0.9, 0.5, 0.1]","[u'low', u'medium', u'high']","red",51,"right","high","True","False",1114,2200,NA
"AW6O5FZEZ6EBX","Sat Oct 03 2020 08:26:25 GMT-0700 (Pacific Daylight Time)","Sat Oct 03 2020 08:35:05 GMT-0700 (Pacific Daylight Time)","Mozilla/5.0 (Windows NT 6.3; Win64; x64) AppleWebKit/537.36 (KHTML, like Gecko) Chrome/85.0.4183.121 Safari/537.36",32,"[0.9, 0.5, 0.1]","[0.8, 0.4, 0.2]","[u'blue', u'black', u'red']","[u'left', u'middle', u'right']","[0.9, 0.5, 0.1]","[u'low', u'medium', u'high']","red",51,"right","high","True","False",1121,2300,NA
"AW6O5FZEZ6EBX","Sat Oct 03 2020 08:26:25 GMT-0700 (Pacific Daylight Time)","Sat Oct 03 2020 08:35:05 GMT-0700 (Pacific Daylight Time)","Mozilla/5.0 (Windows NT 6.3; Win64; x64) AppleWebKit/537.36 (KHTML, like Gecko) Chrome/85.0.4183.121 Safari/537.36",33,"[0.9, 0.5, 0.1]","[0.8, 0.4, 0.2]","[u'blue', u'black', u'red']","[u'left', u'middle', u'right']","[0.9, 0.5, 0.1]","[u'low', u'medium', u'high']","red",51,"right","high","True","False",1211,2400,NA
"AW6O5FZEZ6EBX","Sat Oct 03 2020 08:26:25 GMT-0700 (Pacific Daylight Time)","Sat Oct 03 2020 08:35:05 GMT-0700 (Pacific Daylight Time)","Mozilla/5.0 (Windows NT 6.3; Win64; x64) AppleWebKit/537.36 (KHTML, like Gecko) Chrome/85.0.4183.121 Safari/537.36",34,"[0.9, 0.5, 0.1]","[0.8, 0.4, 0.2]","[u'blue', u'black', u'red']","[u'left', u'middle', u'right']","[0.9, 0.5, 0.1]","[u'low', u'medium', u'high']","red",51,"right","high","True","False",206,2500,NA
"AW6O5FZEZ6EBX","Sat Oct 03 2020 08:26:25 GMT-0700 (Pacific Daylight Time)","Sat Oct 03 2020 08:35:05 GMT-0700 (Pacific Daylight Time)","Mozilla/5.0 (Windows NT 6.3; Win64; x64) AppleWebKit/537.36 (KHTML, like Gecko) Chrome/85.0.4183.121 Safari/537.36",35,"[0.9, 0.5, 0.1]","[0.8, 0.4, 0.2]","[u'blue', u'black', u'red']","[u'left', u'middle', u'right']","[0.9, 0.5, 0.1]","[u'low', u'medium', u'high']","red",51,"right","high","True","False",309,2600,NA
"AW6O5FZEZ6EBX","Sat Oct 03 2020 08:26:25 GMT-0700 (Pacific Daylight Time)","Sat Oct 03 2020 08:35:05 GMT-0700 (Pacific Daylight Time)","Mozilla/5.0 (Windows NT 6.3; Win64; x64) AppleWebKit/537.36 (KHTML, like Gecko) Chrome/85.0.4183.121 Safari/537.36",36,"[0.9, 0.5, 0.1]","[0.8, 0.4, 0.2]","[u'blue', u'black', u'red']","[u'left', u'middle', u'right']","[0.9, 0.5, 0.1]","[u'low', u'medium', u'high']","red",51,"right","high","True","False",2061,2700,NA
"AW6O5FZEZ6EBX","Sat Oct 03 2020 08:26:25 GMT-0700 (Pacific Daylight Time)","Sat Oct 03 2020 08:35:05 GMT-0700 (Pacific Daylight Time)","Mozilla/5.0 (Windows NT 6.3; Win64; x64) AppleWebKit/537.36 (KHTML, like Gecko) Chrome/85.0.4183.121 Safari/537.36",37,"[0.9, 0.5, 0.1]","[0.8, 0.4, 0.2]","[u'blue', u'black', u'red']","[u'left', u'middle', u'right']","[0.9, 0.5, 0.1]","[u'low', u'medium', u'high']","red",51,"right","high","True","False",103,2800,NA
"AW6O5FZEZ6EBX","Sat Oct 03 2020 08:26:25 GMT-0700 (Pacific Daylight Time)","Sat Oct 03 2020 08:35:05 GMT-0700 (Pacific Daylight Time)","Mozilla/5.0 (Windows NT 6.3; Win64; x64) AppleWebKit/537.36 (KHTML, like Gecko) Chrome/85.0.4183.121 Safari/537.36",38,"[0.9, 0.5, 0.1]","[0.8, 0.4, 0.2]","[u'blue', u'black', u'red']","[u'left', u'middle', u'right']","[0.9, 0.5, 0.1]","[u'low', u'medium', u'high']","red",51,"right","high","True","True",228,2900,NA
"AW6O5FZEZ6EBX","Sat Oct 03 2020 08:26:25 GMT-0700 (Pacific Daylight Time)","Sat Oct 03 2020 08:35:05 GMT-0700 (Pacific Daylight Time)","Mozilla/5.0 (Windows NT 6.3; Win64; x64) AppleWebKit/537.36 (KHTML, like Gecko) Chrome/85.0.4183.121 Safari/537.36",39,"[0.9, 0.5, 0.1]","[0.8, 0.4, 0.2]","[u'blue', u'black', u'red']","[u'left', u'middle', u'right']","[0.9, 0.5, 0.1]","[u'high', u'low', u'medium']","red",51,"right","medium","True","False",169,3000,NA
"AW6O5FZEZ6EBX","Sat Oct 03 2020 08:26:25 GMT-0700 (Pacific Daylight Time)","Sat Oct 03 2020 08:35:05 GMT-0700 (Pacific Daylight Time)","Mozilla/5.0 (Windows NT 6.3; Win64; x64) AppleWebKit/537.36 (KHTML, like Gecko) Chrome/85.0.4183.121 Safari/537.36",40,"[0.9, 0.5, 0.1]","[0.8, 0.4, 0.2]","[u'blue', u'black', u'red']","[u'left', u'middle', u'right']","[0.9, 0.5, 0.1]","[u'high', u'low', u'medium']","red",51,"right","medium","True","False",608,3100,NA
"AW6O5FZEZ6EBX","Sat Oct 03 2020 08:26:25 GMT-0700 (Pacific Daylight Time)","Sat Oct 03 2020 08:35:05 GMT-0700 (Pacific Daylight Time)","Mozilla/5.0 (Windows NT 6.3; Win64; x64) AppleWebKit/537.36 (KHTML, like Gecko) Chrome/85.0.4183.121 Safari/537.36",41,"[0.9, 0.5, 0.1]","[0.8, 0.4, 0.2]","[u'blue', u'black', u'red']","[u'left', u'middle', u'right']","[0.9, 0.5, 0.1]","[u'low', u'high', u'medium']","red",51,"right","medium","True","False",1178,3200,NA
"AW6O5FZEZ6EBX","Sat Oct 03 2020 08:26:25 GMT-0700 (Pacific Daylight Time)","Sat Oct 03 2020 08:35:05 GMT-0700 (Pacific Daylight Time)","Mozilla/5.0 (Windows NT 6.3; Win64; x64) AppleWebKit/537.36 (KHTML, like Gecko) Chrome/85.0.4183.121 Safari/537.36",42,"[0.9, 0.5, 0.1]","[0.8, 0.4, 0.2]","[u'blue', u'black', u'red']","[u'left', u'middle', u'right']","[0.9, 0.5, 0.1]","[u'low', u'high', u'medium']","red",51,"right","medium","True","False",24,3300,NA
"AW6O5FZEZ6EBX","Sat Oct 03 2020 08:26:25 GMT-0700 (Pacific Daylight Time)","Sat Oct 03 2020 08:35:05 GMT-0700 (Pacific Daylight Time)","Mozilla/5.0 (Windows NT 6.3; Win64; x64) AppleWebKit/537.36 (KHTML, like Gecko) Chrome/85.0.4183.121 Safari/537.36",43,"[0.9, 0.5, 0.1]","[0.8, 0.4, 0.2]","[u'blue', u'black', u'red']","[u'left', u'middle', u'right']","[0.9, 0.5, 0.1]","[u'low', u'high', u'medium']","red",51,"right","medium","True","False",507,3400,NA
"AW6O5FZEZ6EBX","Sat Oct 03 2020 08:26:25 GMT-0700 (Pacific Daylight Time)","Sat Oct 03 2020 08:35:05 GMT-0700 (Pacific Daylight Time)","Mozilla/5.0 (Windows NT 6.3; Win64; x64) AppleWebKit/537.36 (KHTML, like Gecko) Chrome/85.0.4183.121 Safari/537.36",44,"[0.9, 0.5, 0.1]","[0.8, 0.4, 0.2]","[u'blue', u'black', u'red']","[u'left', u'middle', u'right']","[0.9, 0.5, 0.1]","[u'low', u'high', u'medium']","red",51,"right","medium","True","False",649,3500,NA
"AW6O5FZEZ6EBX","Sat Oct 03 2020 08:26:25 GMT-0700 (Pacific Daylight Time)","Sat Oct 03 2020 08:35:05 GMT-0700 (Pacific Daylight Time)","Mozilla/5.0 (Windows NT 6.3; Win64; x64) AppleWebKit/537.36 (KHTML, like Gecko) Chrome/85.0.4183.121 Safari/537.36",45,"[0.9, 0.5, 0.1]","[0.8, 0.4, 0.2]","[u'blue', u'black', u'red']","[u'left', u'middle', u'right']","[0.9, 0.5, 0.1]","[u'low', u'high', u'medium']","red",51,"right","medium","False","False",8,3450,NA
"AW6O5FZEZ6EBX","Sat Oct 03 2020 08:26:25 GMT-0700 (Pacific Daylight Time)","Sat Oct 03 2020 08:35:05 GMT-0700 (Pacific Daylight Time)","Mozilla/5.0 (Windows NT 6.3; Win64; x64) AppleWebKit/537.36 (KHTML, like Gecko) Chrome/85.0.4183.121 Safari/537.36",46,"[0.9, 0.5, 0.1]","[0.8, 0.4, 0.2]","[u'blue', u'black', u'red']","[u'left', u'middle', u'right']","[0.9, 0.5, 0.1]","[u'low', u'high', u'medium']","red",51,"right","medium","False","False",341,3400,NA
"AW6O5FZEZ6EBX","Sat Oct 03 2020 08:26:25 GMT-0700 (Pacific Daylight Time)","Sat Oct 03 2020 08:35:05 GMT-0700 (Pacific Daylight Time)","Mozilla/5.0 (Windows NT 6.3; Win64; x64) AppleWebKit/537.36 (KHTML, like Gecko) Chrome/85.0.4183.121 Safari/537.36",47,"[0.9, 0.5, 0.1]","[0.8, 0.4, 0.2]","[u'blue', u'black', u'red']","[u'left', u'middle', u'right']","[0.9, 0.5, 0.1]","[u'low', u'high', u'medium']","black",50,"middle","high","True","False",1846,3500,NA
"AW6O5FZEZ6EBX","Sat Oct 03 2020 08:26:25 GMT-0700 (Pacific Daylight Time)","Sat Oct 03 2020 08:35:05 GMT-0700 (Pacific Daylight Time)","Mozilla/5.0 (Windows NT 6.3; Win64; x64) AppleWebKit/537.36 (KHTML, like Gecko) Chrome/85.0.4183.121 Safari/537.36",48,"[0.9, 0.5, 0.1]","[0.8, 0.4, 0.2]","[u'blue', u'black', u'red']","[u'left', u'middle', u'right']","[0.9, 0.5, 0.1]","[u'low', u'high', u'medium']","black",50,"middle","high","True","False",128,3600,NA
"AW6O5FZEZ6EBX","Sat Oct 03 2020 08:26:25 GMT-0700 (Pacific Daylight Time)","Sat Oct 03 2020 08:35:05 GMT-0700 (Pacific Daylight Time)","Mozilla/5.0 (Windows NT 6.3; Win64; x64) AppleWebKit/537.36 (KHTML, like Gecko) Chrome/85.0.4183.121 Safari/537.36",49,"[0.9, 0.5, 0.1]","[0.8, 0.4, 0.2]","[u'blue', u'black', u'red']","[u'left', u'middle', u'right']","[0.9, 0.5, 0.1]","[u'low', u'high', u'medium']","black",50,"middle","high","True","False",681,3700,NA
"AW6O5FZEZ6EBX","Sat Oct 03 2020 08:26:25 GMT-0700 (Pacific Daylight Time)","Sat Oct 03 2020 08:35:05 GMT-0700 (Pacific Daylight Time)","Mozilla/5.0 (Windows NT 6.3; Win64; x64) AppleWebKit/537.36 (KHTML, like Gecko) Chrome/85.0.4183.121 Safari/537.36",50,"[0.9, 0.5, 0.1]","[0.8, 0.4, 0.2]","[u'blue', u'black', u'red']","[u'left', u'middle', u'right']","[0.9, 0.5, 0.1]","[u'low', u'high', u'medium']","black",50,"middle","high","True","False",58,3800,NA
"AW6O5FZEZ6EBX","Sat Oct 03 2020 08:26:25 GMT-0700 (Pacific Daylight Time)","Sat Oct 03 2020 08:35:05 GMT-0700 (Pacific Daylight Time)","Mozilla/5.0 (Windows NT 6.3; Win64; x64) AppleWebKit/537.36 (KHTML, like Gecko) Chrome/85.0.4183.121 Safari/537.36",51,"[0.9, 0.5, 0.1]","[0.8, 0.4, 0.2]","[u'blue', u'black', u'red']","[u'left', u'middle', u'right']","[0.9, 0.5, 0.1]","[u'low', u'high', u'medium']","black",50,"middle","high","True","False",1408,3900,NA
"AW6O5FZEZ6EBX","Sat Oct 03 2020 08:26:25 GMT-0700 (Pacific Daylight Time)","Sat Oct 03 2020 08:35:05 GMT-0700 (Pacific Daylight Time)","Mozilla/5.0 (Windows NT 6.3; Win64; x64) AppleWebKit/537.36 (KHTML, like Gecko) Chrome/85.0.4183.121 Safari/537.36",52,"[0.9, 0.5, 0.1]","[0.8, 0.4, 0.2]","[u'blue', u'black', u'red']","[u'left', u'middle', u'right']","[0.9, 0.5, 0.1]","[u'low', u'high', u'medium']","black",50,"middle","high","True","False",2050,4000,NA
"AW6O5FZEZ6EBX","Sat Oct 03 2020 08:26:25 GMT-0700 (Pacific Daylight Time)","Sat Oct 03 2020 08:35:05 GMT-0700 (Pacific Daylight Time)","Mozilla/5.0 (Windows NT 6.3; Win64; x64) AppleWebKit/537.36 (KHTML, like Gecko) Chrome/85.0.4183.121 Safari/537.36",53,"[0.9, 0.5, 0.1]","[0.8, 0.4, 0.2]","[u'blue', u'black', u'red']","[u'left', u'middle', u'right']","[0.9, 0.5, 0.1]","[u'low', u'high', u'medium']","black",50,"middle","high","True","False",982,4100,NA
"AW6O5FZEZ6EBX","Sat Oct 03 2020 08:26:25 GMT-0700 (Pacific Daylight Time)","Sat Oct 03 2020 08:35:05 GMT-0700 (Pacific Daylight Time)","Mozilla/5.0 (Windows NT 6.3; Win64; x64) AppleWebKit/537.36 (KHTML, like Gecko) Chrome/85.0.4183.121 Safari/537.36",54,"[0.9, 0.5, 0.1]","[0.8, 0.4, 0.2]","[u'blue', u'black', u'red']","[u'left', u'middle', u'right']","[0.9, 0.5, 0.1]","[u'low', u'high', u'medium']","black",50,"middle","high","True","False",153,4200,NA
"AW6O5FZEZ6EBX","Sat Oct 03 2020 08:26:25 GMT-0700 (Pacific Daylight Time)","Sat Oct 03 2020 08:35:05 GMT-0700 (Pacific Daylight Time)","Mozilla/5.0 (Windows NT 6.3; Win64; x64) AppleWebKit/537.36 (KHTML, like Gecko) Chrome/85.0.4183.121 Safari/537.36",55,"[0.9, 0.5, 0.1]","[0.8, 0.4, 0.2]","[u'blue', u'black', u'red']","[u'left', u'middle', u'right']","[0.9, 0.5, 0.1]","[u'low', u'high', u'medium']","black",50,"middle","high","True","True",287,4300,NA
"AW6O5FZEZ6EBX","Sat Oct 03 2020 08:26:25 GMT-0700 (Pacific Daylight Time)","Sat Oct 03 2020 08:35:05 GMT-0700 (Pacific Daylight Time)","Mozilla/5.0 (Windows NT 6.3; Win64; x64) AppleWebKit/537.36 (KHTML, like Gecko) Chrome/85.0.4183.121 Safari/537.36",56,"[0.9, 0.5, 0.1]","[0.8, 0.4, 0.2]","[u'blue', u'black', u'red']","[u'left', u'middle', u'right']","[0.9, 0.5, 0.1]","[u'medium', u'low', u'high']","black",50,"middle","low","False","False",298,4250,NA
"AW6O5FZEZ6EBX","Sat Oct 03 2020 08:26:25 GMT-0700 (Pacific Daylight Time)","Sat Oct 03 2020 08:35:05 GMT-0700 (Pacific Daylight Time)","Mozilla/5.0 (Windows NT 6.3; Win64; x64) AppleWebKit/537.36 (KHTML, like Gecko) Chrome/85.0.4183.121 Safari/537.36",57,"[0.9, 0.5, 0.1]","[0.8, 0.4, 0.2]","[u'blue', u'black', u'red']","[u'left', u'middle', u'right']","[0.9, 0.5, 0.1]","[u'medium', u'low', u'high']","red",51,"right","high","True","False",347,4350,NA
"AW6O5FZEZ6EBX","Sat Oct 03 2020 08:26:25 GMT-0700 (Pacific Daylight Time)","Sat Oct 03 2020 08:35:05 GMT-0700 (Pacific Daylight Time)","Mozilla/5.0 (Windows NT 6.3; Win64; x64) AppleWebKit/537.36 (KHTML, like Gecko) Chrome/85.0.4183.121 Safari/537.36",58,"[0.9, 0.5, 0.1]","[0.8, 0.4, 0.2]","[u'blue', u'black', u'red']","[u'left', u'middle', u'right']","[0.9, 0.5, 0.1]","[u'medium', u'low', u'high']","red",51,"right","high","True","False",338,4450,NA
"AW6O5FZEZ6EBX","Sat Oct 03 2020 08:26:25 GMT-0700 (Pacific Daylight Time)","Sat Oct 03 2020 08:35:05 GMT-0700 (Pacific Daylight Time)","Mozilla/5.0 (Windows NT 6.3; Win64; x64) AppleWebKit/537.36 (KHTML, like Gecko) Chrome/85.0.4183.121 Safari/537.36",59,"[0.9, 0.5, 0.1]","[0.8, 0.4, 0.2]","[u'blue', u'black', u'red']","[u'left', u'middle', u'right']","[0.9, 0.5, 0.1]","[u'medium', u'low', u'high']","red",51,"right","high","True","False",489,4550,NA
"AW6O5FZEZ6EBX","Sat Oct 03 2020 08:26:25 GMT-0700 (Pacific Daylight Time)","Sat Oct 03 2020 08:35:05 GMT-0700 (Pacific Daylight Time)","Mozilla/5.0 (Windows NT 6.3; Win64; x64) AppleWebKit/537.36 (KHTML, like Gecko) Chrome/85.0.4183.121 Safari/537.36",60,"[0.9, 0.5, 0.1]","[0.8, 0.4, 0.2]","[u'blue', u'black', u'red']","[u'left', u'middle', u'right']","[0.9, 0.5, 0.1]","[u'medium', u'low', u'high']","red",51,"right","high","True","False",605,4650,NA
"AW6O5FZEZ6EBX","Sat Oct 03 2020 08:26:25 GMT-0700 (Pacific Daylight Time)","Sat Oct 03 2020 08:35:05 GMT-0700 (Pacific Daylight Time)","Mozilla/5.0 (Windows NT 6.3; Win64; x64) AppleWebKit/537.36 (KHTML, like Gecko) Chrome/85.0.4183.121 Safari/537.36",61,"[0.9, 0.5, 0.1]","[0.8, 0.4, 0.2]","[u'blue', u'black', u'red']","[u'left', u'middle', u'right']","[0.9, 0.5, 0.1]","[u'medium', u'low', u'high']","red",51,"right","high","True","False",188,4750,NA
"AW6O5FZEZ6EBX","Sat Oct 03 2020 08:26:25 GMT-0700 (Pacific Daylight Time)","Sat Oct 03 2020 08:35:05 GMT-0700 (Pacific Daylight Time)","Mozilla/5.0 (Windows NT 6.3; Win64; x64) AppleWebKit/537.36 (KHTML, like Gecko) Chrome/85.0.4183.121 Safari/537.36",62,"[0.9, 0.5, 0.1]","[0.8, 0.4, 0.2]","[u'blue', u'black', u'red']","[u'left', u'middle', u'right']","[0.9, 0.5, 0.1]","[u'medium', u'low', u'high']","red",51,"right","high","False","False",117,4700,NA
"AW6O5FZEZ6EBX","Sat Oct 03 2020 08:26:25 GMT-0700 (Pacific Daylight Time)","Sat Oct 03 2020 08:35:05 GMT-0700 (Pacific Daylight Time)","Mozilla/5.0 (Windows NT 6.3; Win64; x64) AppleWebKit/537.36 (KHTML, like Gecko) Chrome/85.0.4183.121 Safari/537.36",63,"[0.9, 0.5, 0.1]","[0.8, 0.4, 0.2]","[u'blue', u'black', u'red']","[u'left', u'middle', u'right']","[0.9, 0.5, 0.1]","[u'medium', u'low', u'high']","blue",49,"left","medium","True","False",638,4800,NA
"AW6O5FZEZ6EBX","Sat Oct 03 2020 08:26:25 GMT-0700 (Pacific Daylight Time)","Sat Oct 03 2020 08:35:05 GMT-0700 (Pacific Daylight Time)","Mozilla/5.0 (Windows NT 6.3; Win64; x64) AppleWebKit/537.36 (KHTML, like Gecko) Chrome/85.0.4183.121 Safari/537.36",64,"[0.9, 0.5, 0.1]","[0.8, 0.4, 0.2]","[u'blue', u'black', u'red']","[u'left', u'middle', u'right']","[0.9, 0.5, 0.1]","[u'medium', u'low', u'high']","blue",49,"left","medium","True","False",512,4900,NA
"AW6O5FZEZ6EBX","Sat Oct 03 2020 08:26:25 GMT-0700 (Pacific Daylight Time)","Sat Oct 03 2020 08:35:05 GMT-0700 (Pacific Daylight Time)","Mozilla/5.0 (Windows NT 6.3; Win64; x64) AppleWebKit/537.36 (KHTML, like Gecko) Chrome/85.0.4183.121 Safari/537.36",65,"[0.9, 0.5, 0.1]","[0.8, 0.4, 0.2]","[u'blue', u'black', u'red']","[u'left', u'middle', u'right']","[0.9, 0.5, 0.1]","[u'medium', u'low', u'high']","blue",49,"left","medium","False","False",436,4850,NA
"AW6O5FZEZ6EBX","Sat Oct 03 2020 08:26:25 GMT-0700 (Pacific Daylight Time)","Sat Oct 03 2020 08:35:05 GMT-0700 (Pacific Daylight Time)","Mozilla/5.0 (Windows NT 6.3; Win64; x64) AppleWebKit/537.36 (KHTML, like Gecko) Chrome/85.0.4183.121 Safari/537.36",66,"[0.9, 0.5, 0.1]","[0.8, 0.4, 0.2]","[u'blue', u'black', u'red']","[u'left', u'middle', u'right']","[0.9, 0.5, 0.1]","[u'medium', u'low', u'high']","black",50,"middle","low","False","False",373,4800,NA
"AW6O5FZEZ6EBX","Sat Oct 03 2020 08:26:25 GMT-0700 (Pacific Daylight Time)","Sat Oct 03 2020 08:35:05 GMT-0700 (Pacific Daylight Time)","Mozilla/5.0 (Windows NT 6.3; Win64; x64) AppleWebKit/537.36 (KHTML, like Gecko) Chrome/85.0.4183.121 Safari/537.36",67,"[0.9, 0.5, 0.1]","[0.8, 0.4, 0.2]","[u'blue', u'black', u'red']","[u'left', u'middle', u'right']","[0.9, 0.5, 0.1]","[u'medium', u'low', u'high']","black",50,"middle","low","False","False",192,4750,NA
"AW6O5FZEZ6EBX","Sat Oct 03 2020 08:26:25 GMT-0700 (Pacific Daylight Time)","Sat Oct 03 2020 08:35:05 GMT-0700 (Pacific Daylight Time)","Mozilla/5.0 (Windows NT 6.3; Win64; x64) AppleWebKit/537.36 (KHTML, like Gecko) Chrome/85.0.4183.121 Safari/537.36",68,"[0.9, 0.5, 0.1]","[0.8, 0.4, 0.2]","[u'blue', u'black', u'red']","[u'left', u'middle', u'right']","[0.9, 0.5, 0.1]","[u'medium', u'low', u'high']","black",50,"middle","low","True","False",121,4850,NA
"AW6O5FZEZ6EBX","Sat Oct 03 2020 08:26:25 GMT-0700 (Pacific Daylight Time)","Sat Oct 03 2020 08:35:05 GMT-0700 (Pacific Daylight Time)","Mozilla/5.0 (Windows NT 6.3; Win64; x64) AppleWebKit/537.36 (KHTML, like Gecko) Chrome/85.0.4183.121 Safari/537.36",69,"[0.9, 0.5, 0.1]","[0.8, 0.4, 0.2]","[u'blue', u'black', u'red']","[u'left', u'middle', u'right']","[0.9, 0.5, 0.1]","[u'medium', u'low', u'high']","black",50,"middle","low","False","False",1509,4800,NA
"AW6O5FZEZ6EBX","Sat Oct 03 2020 08:26:25 GMT-0700 (Pacific Daylight Time)","Sat Oct 03 2020 08:35:05 GMT-0700 (Pacific Daylight Time)","Mozilla/5.0 (Windows NT 6.3; Win64; x64) AppleWebKit/537.36 (KHTML, like Gecko) Chrome/85.0.4183.121 Safari/537.36",70,"[0.9, 0.5, 0.1]","[0.8, 0.4, 0.2]","[u'blue', u'black', u'red']","[u'left', u'middle', u'right']","[0.9, 0.5, 0.1]","[u'medium', u'low', u'high']","red",51,"right","high","True","False",120,4900,NA
"AW6O5FZEZ6EBX","Sat Oct 03 2020 08:26:25 GMT-0700 (Pacific Daylight Time)","Sat Oct 03 2020 08:35:05 GMT-0700 (Pacific Daylight Time)","Mozilla/5.0 (Windows NT 6.3; Win64; x64) AppleWebKit/537.36 (KHTML, like Gecko) Chrome/85.0.4183.121 Safari/537.36",71,"[0.9, 0.5, 0.1]","[0.8, 0.4, 0.2]","[u'blue', u'black', u'red']","[u'left', u'middle', u'right']","[0.9, 0.5, 0.1]","[u'medium', u'low', u'high']","red",51,"right","high","True","False",1394,5000,NA
"AW6O5FZEZ6EBX","Sat Oct 03 2020 08:26:25 GMT-0700 (Pacific Daylight Time)","Sat Oct 03 2020 08:35:05 GMT-0700 (Pacific Daylight Time)","Mozilla/5.0 (Windows NT 6.3; Win64; x64) AppleWebKit/537.36 (KHTML, like Gecko) Chrome/85.0.4183.121 Safari/537.36",72,"[0.9, 0.5, 0.1]","[0.8, 0.4, 0.2]","[u'blue', u'black', u'red']","[u'left', u'middle', u'right']","[0.9, 0.5, 0.1]","[u'medium', u'low', u'high']","red",51,"right","high","True","False",1515,5100,NA
"AW6O5FZEZ6EBX","Sat Oct 03 2020 08:26:25 GMT-0700 (Pacific Daylight Time)","Sat Oct 03 2020 08:35:05 GMT-0700 (Pacific Daylight Time)","Mozilla/5.0 (Windows NT 6.3; Win64; x64) AppleWebKit/537.36 (KHTML, like Gecko) Chrome/85.0.4183.121 Safari/537.36",73,"[0.9, 0.5, 0.1]","[0.8, 0.4, 0.2]","[u'blue', u'black', u'red']","[u'left', u'middle', u'right']","[0.9, 0.5, 0.1]","[u'medium', u'low', u'high']","black",50,"middle","low","False","False",4952,5050,NA
"AW6O5FZEZ6EBX","Sat Oct 03 2020 08:26:25 GMT-0700 (Pacific Daylight Time)","Sat Oct 03 2020 08:35:05 GMT-0700 (Pacific Daylight Time)","Mozilla/5.0 (Windows NT 6.3; Win64; x64) AppleWebKit/537.36 (KHTML, like Gecko) Chrome/85.0.4183.121 Safari/537.36",74,"[0.9, 0.5, 0.1]","[0.8, 0.4, 0.2]","[u'blue', u'black', u'red']","[u'left', u'middle', u'right']","[0.9, 0.5, 0.1]","[u'medium', u'low', u'high']","black",50,"middle","low","False","False",944,5000,NA
"AW6O5FZEZ6EBX","Sat Oct 03 2020 08:26:25 GMT-0700 (Pacific Daylight Time)","Sat Oct 03 2020 08:35:05 GMT-0700 (Pacific Daylight Time)","Mozilla/5.0 (Windows NT 6.3; Win64; x64) AppleWebKit/537.36 (KHTML, like Gecko) Chrome/85.0.4183.121 Safari/537.36",75,"[0.9, 0.5, 0.1]","[0.8, 0.4, 0.2]","[u'blue', u'black', u'red']","[u'left', u'middle', u'right']","[0.9, 0.5, 0.1]","[u'medium', u'low', u'high']","red",51,"right","high","True","False",266,5100,NA
"AW6O5FZEZ6EBX","Sat Oct 03 2020 08:26:25 GMT-0700 (Pacific Daylight Time)","Sat Oct 03 2020 08:35:05 GMT-0700 (Pacific Daylight Time)","Mozilla/5.0 (Windows NT 6.3; Win64; x64) AppleWebKit/537.36 (KHTML, like Gecko) Chrome/85.0.4183.121 Safari/537.36",76,"[0.9, 0.5, 0.1]","[0.8, 0.4, 0.2]","[u'blue', u'black', u'red']","[u'left', u'middle', u'right']","[0.9, 0.5, 0.1]","[u'medium', u'low', u'high']","red",51,"right","high","True","False",502,5200,NA
"AW6O5FZEZ6EBX","Sat Oct 03 2020 08:26:25 GMT-0700 (Pacific Daylight Time)","Sat Oct 03 2020 08:35:05 GMT-0700 (Pacific Daylight Time)","Mozilla/5.0 (Windows NT 6.3; Win64; x64) AppleWebKit/537.36 (KHTML, like Gecko) Chrome/85.0.4183.121 Safari/537.36",77,"[0.9, 0.5, 0.1]","[0.8, 0.4, 0.2]","[u'blue', u'black', u'red']","[u'left', u'middle', u'right']","[0.9, 0.5, 0.1]","[u'medium', u'low', u'high']","red",51,"right","high","True","False",487,5300,NA
"AW6O5FZEZ6EBX","Sat Oct 03 2020 08:26:25 GMT-0700 (Pacific Daylight Time)","Sat Oct 03 2020 08:35:05 GMT-0700 (Pacific Daylight Time)","Mozilla/5.0 (Windows NT 6.3; Win64; x64) AppleWebKit/537.36 (KHTML, like Gecko) Chrome/85.0.4183.121 Safari/537.36",78,"[0.9, 0.5, 0.1]","[0.8, 0.4, 0.2]","[u'blue', u'black', u'red']","[u'left', u'middle', u'right']","[0.9, 0.5, 0.1]","[u'medium', u'low', u'high']","red",51,"right","high","True","False",1319,5400,NA
"AW6O5FZEZ6EBX","Sat Oct 03 2020 08:26:25 GMT-0700 (Pacific Daylight Time)","Sat Oct 03 2020 08:35:05 GMT-0700 (Pacific Daylight Time)","Mozilla/5.0 (Windows NT 6.3; Win64; x64) AppleWebKit/537.36 (KHTML, like Gecko) Chrome/85.0.4183.121 Safari/537.36",79,"[0.9, 0.5, 0.1]","[0.8, 0.4, 0.2]","[u'blue', u'black', u'red']","[u'left', u'middle', u'right']","[0.9, 0.5, 0.1]","[u'medium', u'low', u'high']","red",51,"right","high","True","False",336,5500,NA
"AW6O5FZEZ6EBX","Sat Oct 03 2020 08:26:25 GMT-0700 (Pacific Daylight Time)","Sat Oct 03 2020 08:35:05 GMT-0700 (Pacific Daylight Time)","Mozilla/5.0 (Windows NT 6.3; Win64; x64) AppleWebKit/537.36 (KHTML, like Gecko) Chrome/85.0.4183.121 Safari/537.36",80,"[0.9, 0.5, 0.1]","[0.8, 0.4, 0.2]","[u'blue', u'black', u'red']","[u'left', u'middle', u'right']","[0.9, 0.5, 0.1]","[u'medium', u'low', u'high']","red",51,"right","high","True","False",27,5600,NA
"AW6O5FZEZ6EBX","Sat Oct 03 2020 08:26:25 GMT-0700 (Pacific Daylight Time)","Sat Oct 03 2020 08:35:05 GMT-0700 (Pacific Daylight Time)","Mozilla/5.0 (Windows NT 6.3; Win64; x64) AppleWebKit/537.36 (KHTML, like Gecko) Chrome/85.0.4183.121 Safari/537.36",81,"[0.9, 0.5, 0.1]","[0.8, 0.4, 0.2]","[u'blue', u'black', u'red']","[u'left', u'middle', u'right']","[0.8, 0.4, 0.2]","[u'low', u'high', u'medium']","red",51,"right","medium","False","False",640,5550,NA
"AW6O5FZEZ6EBX","Sat Oct 03 2020 08:26:25 GMT-0700 (Pacific Daylight Time)","Sat Oct 03 2020 08:35:05 GMT-0700 (Pacific Daylight Time)","Mozilla/5.0 (Windows NT 6.3; Win64; x64) AppleWebKit/537.36 (KHTML, like Gecko) Chrome/85.0.4183.121 Safari/537.36",82,"[0.9, 0.5, 0.1]","[0.8, 0.4, 0.2]","[u'blue', u'black', u'red']","[u'left', u'middle', u'right']","[0.8, 0.4, 0.2]","[u'low', u'high', u'medium']","black",50,"middle","high","False","False",798,5500,NA
"AW6O5FZEZ6EBX","Sat Oct 03 2020 08:26:25 GMT-0700 (Pacific Daylight Time)","Sat Oct 03 2020 08:35:05 GMT-0700 (Pacific Daylight Time)","Mozilla/5.0 (Windows NT 6.3; Win64; x64) AppleWebKit/537.36 (KHTML, like Gecko) Chrome/85.0.4183.121 Safari/537.36",83,"[0.9, 0.5, 0.1]","[0.8, 0.4, 0.2]","[u'blue', u'black', u'red']","[u'left', u'middle', u'right']","[0.8, 0.4, 0.2]","[u'low', u'high', u'medium']","blue",49,"left","low","False","False",18,5450,NA
"AW6O5FZEZ6EBX","Sat Oct 03 2020 08:26:25 GMT-0700 (Pacific Daylight Time)","Sat Oct 03 2020 08:35:05 GMT-0700 (Pacific Daylight Time)","Mozilla/5.0 (Windows NT 6.3; Win64; x64) AppleWebKit/537.36 (KHTML, like Gecko) Chrome/85.0.4183.121 Safari/537.36",84,"[0.9, 0.5, 0.1]","[0.8, 0.4, 0.2]","[u'blue', u'black', u'red']","[u'left', u'middle', u'right']","[0.8, 0.4, 0.2]","[u'low', u'high', u'medium']","black",50,"middle","high","True","False",579,5550,NA
"AW6O5FZEZ6EBX","Sat Oct 03 2020 08:26:25 GMT-0700 (Pacific Daylight Time)","Sat Oct 03 2020 08:35:05 GMT-0700 (Pacific Daylight Time)","Mozilla/5.0 (Windows NT 6.3; Win64; x64) AppleWebKit/537.36 (KHTML, like Gecko) Chrome/85.0.4183.121 Safari/537.36",85,"[0.9, 0.5, 0.1]","[0.8, 0.4, 0.2]","[u'blue', u'black', u'red']","[u'left', u'middle', u'right']","[0.8, 0.4, 0.2]","[u'low', u'high', u'medium']","black",50,"middle","high","False","False",64,5500,NA
"AW6O5FZEZ6EBX","Sat Oct 03 2020 08:26:25 GMT-0700 (Pacific Daylight Time)","Sat Oct 03 2020 08:35:05 GMT-0700 (Pacific Daylight Time)","Mozilla/5.0 (Windows NT 6.3; Win64; x64) AppleWebKit/537.36 (KHTML, like Gecko) Chrome/85.0.4183.121 Safari/537.36",86,"[0.9, 0.5, 0.1]","[0.8, 0.4, 0.2]","[u'blue', u'black', u'red']","[u'left', u'middle', u'right']","[0.8, 0.4, 0.2]","[u'low', u'high', u'medium']","black",50,"middle","high","True","False",430,5600,NA
"AW6O5FZEZ6EBX","Sat Oct 03 2020 08:26:25 GMT-0700 (Pacific Daylight Time)","Sat Oct 03 2020 08:35:05 GMT-0700 (Pacific Daylight Time)","Mozilla/5.0 (Windows NT 6.3; Win64; x64) AppleWebKit/537.36 (KHTML, like Gecko) Chrome/85.0.4183.121 Safari/537.36",87,"[0.9, 0.5, 0.1]","[0.8, 0.4, 0.2]","[u'blue', u'black', u'red']","[u'left', u'middle', u'right']","[0.8, 0.4, 0.2]","[u'low', u'high', u'medium']","black",50,"middle","high","True","False",331,5700,NA
"AW6O5FZEZ6EBX","Sat Oct 03 2020 08:26:25 GMT-0700 (Pacific Daylight Time)","Sat Oct 03 2020 08:35:05 GMT-0700 (Pacific Daylight Time)","Mozilla/5.0 (Windows NT 6.3; Win64; x64) AppleWebKit/537.36 (KHTML, like Gecko) Chrome/85.0.4183.121 Safari/537.36",88,"[0.9, 0.5, 0.1]","[0.8, 0.4, 0.2]","[u'blue', u'black', u'red']","[u'left', u'middle', u'right']","[0.8, 0.4, 0.2]","[u'low', u'high', u'medium']","black",50,"middle","high","True","False",98,5800,NA
"AW6O5FZEZ6EBX","Sat Oct 03 2020 08:26:25 GMT-0700 (Pacific Daylight Time)","Sat Oct 03 2020 08:35:05 GMT-0700 (Pacific Daylight Time)","Mozilla/5.0 (Windows NT 6.3; Win64; x64) AppleWebKit/537.36 (KHTML, like Gecko) Chrome/85.0.4183.121 Safari/537.36",89,"[0.9, 0.5, 0.1]","[0.8, 0.4, 0.2]","[u'blue', u'black', u'red']","[u'left', u'middle', u'right']","[0.8, 0.4, 0.2]","[u'low', u'high', u'medium']","black",50,"middle","high","True","False",40,5900,NA
"AW6O5FZEZ6EBX","Sat Oct 03 2020 08:26:25 GMT-0700 (Pacific Daylight Time)","Sat Oct 03 2020 08:35:05 GMT-0700 (Pacific Daylight Time)","Mozilla/5.0 (Windows NT 6.3; Win64; x64) AppleWebKit/537.36 (KHTML, like Gecko) Chrome/85.0.4183.121 Safari/537.36",90,"[0.9, 0.5, 0.1]","[0.8, 0.4, 0.2]","[u'blue', u'black', u'red']","[u'left', u'middle', u'right']","[0.8, 0.4, 0.2]","[u'low', u'high', u'medium']","black",50,"middle","high","True","False",338,6000,NA
"AW6O5FZEZ6EBX","Sat Oct 03 2020 08:26:25 GMT-0700 (Pacific Daylight Time)","Sat Oct 03 2020 08:35:05 GMT-0700 (Pacific Daylight Time)","Mozilla/5.0 (Windows NT 6.3; Win64; x64) AppleWebKit/537.36 (KHTML, like Gecko) Chrome/85.0.4183.121 Safari/537.36",91,"[0.9, 0.5, 0.1]","[0.8, 0.4, 0.2]","[u'blue', u'black', u'red']","[u'left', u'middle', u'right']","[0.8, 0.4, 0.2]","[u'low', u'high', u'medium']","black",50,"middle","high","True","True",297,6100,NA
"AW6O5FZEZ6EBX","Sat Oct 03 2020 08:26:25 GMT-0700 (Pacific Daylight Time)","Sat Oct 03 2020 08:35:05 GMT-0700 (Pacific Daylight Time)","Mozilla/5.0 (Windows NT 6.3; Win64; x64) AppleWebKit/537.36 (KHTML, like Gecko) Chrome/85.0.4183.121 Safari/537.36",92,"[0.9, 0.5, 0.1]","[0.8, 0.4, 0.2]","[u'blue', u'black', u'red']","[u'left', u'middle', u'right']","[0.8, 0.4, 0.2]","[u'medium', u'low', u'high']","black",50,"middle","low","False","False",578,6050,NA
"AW6O5FZEZ6EBX","Sat Oct 03 2020 08:26:25 GMT-0700 (Pacific Daylight Time)","Sat Oct 03 2020 08:35:05 GMT-0700 (Pacific Daylight Time)","Mozilla/5.0 (Windows NT 6.3; Win64; x64) AppleWebKit/537.36 (KHTML, like Gecko) Chrome/85.0.4183.121 Safari/537.36",93,"[0.9, 0.5, 0.1]","[0.8, 0.4, 0.2]","[u'blue', u'black', u'red']","[u'left', u'middle', u'right']","[0.8, 0.4, 0.2]","[u'medium', u'low', u'high']","red",51,"right","high","False","False",900,6000,NA
"AW6O5FZEZ6EBX","Sat Oct 03 2020 08:26:25 GMT-0700 (Pacific Daylight Time)","Sat Oct 03 2020 08:35:05 GMT-0700 (Pacific Daylight Time)","Mozilla/5.0 (Windows NT 6.3; Win64; x64) AppleWebKit/537.36 (KHTML, like Gecko) Chrome/85.0.4183.121 Safari/537.36",94,"[0.9, 0.5, 0.1]","[0.8, 0.4, 0.2]","[u'blue', u'black', u'red']","[u'left', u'middle', u'right']","[0.8, 0.4, 0.2]","[u'medium', u'low', u'high']","blue",49,"left","medium","False","False",435,5950,NA
"AW6O5FZEZ6EBX","Sat Oct 03 2020 08:26:25 GMT-0700 (Pacific Daylight Time)","Sat Oct 03 2020 08:35:05 GMT-0700 (Pacific Daylight Time)","Mozilla/5.0 (Windows NT 6.3; Win64; x64) AppleWebKit/537.36 (KHTML, like Gecko) Chrome/85.0.4183.121 Safari/537.36",95,"[0.9, 0.5, 0.1]","[0.8, 0.4, 0.2]","[u'blue', u'black', u'red']","[u'left', u'middle', u'right']","[0.8, 0.4, 0.2]","[u'medium', u'low', u'high']","blue",49,"left","medium","False","False",319,5900,NA
"AW6O5FZEZ6EBX","Sat Oct 03 2020 08:26:25 GMT-0700 (Pacific Daylight Time)","Sat Oct 03 2020 08:35:05 GMT-0700 (Pacific Daylight Time)","Mozilla/5.0 (Windows NT 6.3; Win64; x64) AppleWebKit/537.36 (KHTML, like Gecko) Chrome/85.0.4183.121 Safari/537.36",96,"[0.9, 0.5, 0.1]","[0.8, 0.4, 0.2]","[u'blue', u'black', u'red']","[u'left', u'middle', u'right']","[0.8, 0.4, 0.2]","[u'medium', u'low', u'high']","blue",49,"left","medium","True","False",304,6000,NA
"AW6O5FZEZ6EBX","Sat Oct 03 2020 08:26:25 GMT-0700 (Pacific Daylight Time)","Sat Oct 03 2020 08:35:05 GMT-0700 (Pacific Daylight Time)","Mozilla/5.0 (Windows NT 6.3; Win64; x64) AppleWebKit/537.36 (KHTML, like Gecko) Chrome/85.0.4183.121 Safari/537.36",97,"[0.9, 0.5, 0.1]","[0.8, 0.4, 0.2]","[u'blue', u'black', u'red']","[u'left', u'middle', u'right']","[0.8, 0.4, 0.2]","[u'medium', u'low', u'high']","black",50,"middle","low","False","False",4955,5950,NA
"AW6O5FZEZ6EBX","Sat Oct 03 2020 08:26:25 GMT-0700 (Pacific Daylight Time)","Sat Oct 03 2020 08:35:05 GMT-0700 (Pacific Daylight Time)","Mozilla/5.0 (Windows NT 6.3; Win64; x64) AppleWebKit/537.36 (KHTML, like Gecko) Chrome/85.0.4183.121 Safari/537.36",98,"[0.9, 0.5, 0.1]","[0.8, 0.4, 0.2]","[u'blue', u'black', u'red']","[u'left', u'middle', u'right']","[0.8, 0.4, 0.2]","[u'medium', u'low', u'high']","red",51,"right","high","False","False",280,5900,NA
"AW6O5FZEZ6EBX","Sat Oct 03 2020 08:26:25 GMT-0700 (Pacific Daylight Time)","Sat Oct 03 2020 08:35:05 GMT-0700 (Pacific Daylight Time)","Mozilla/5.0 (Windows NT 6.3; Win64; x64) AppleWebKit/537.36 (KHTML, like Gecko) Chrome/85.0.4183.121 Safari/537.36",99,"[0.9, 0.5, 0.1]","[0.8, 0.4, 0.2]","[u'blue', u'black', u'red']","[u'left', u'middle', u'right']","[0.8, 0.4, 0.2]","[u'medium', u'low', u'high']","red",51,"right","high","True","False",629,6000,NA
"AW6O5FZEZ6EBX","Sat Oct 03 2020 08:26:25 GMT-0700 (Pacific Daylight Time)","Sat Oct 03 2020 08:35:05 GMT-0700 (Pacific Daylight Time)","Mozilla/5.0 (Windows NT 6.3; Win64; x64) AppleWebKit/537.36 (KHTML, like Gecko) Chrome/85.0.4183.121 Safari/537.36",100,"[0.9, 0.5, 0.1]","[0.8, 0.4, 0.2]","[u'blue', u'black', u'red']","[u'left', u'middle', u'right']","[0.8, 0.4, 0.2]","[u'medium', u'low', u'high']","red",51,"right","high","False","False",671,5950,NA
"AW6O5FZEZ6EBX","Sat Oct 03 2020 08:26:25 GMT-0700 (Pacific Daylight Time)","Sat Oct 03 2020 08:35:05 GMT-0700 (Pacific Daylight Time)","Mozilla/5.0 (Windows NT 6.3; Win64; x64) AppleWebKit/537.36 (KHTML, like Gecko) Chrome/85.0.4183.121 Safari/537.36",101,"[0.9, 0.5, 0.1]","[0.8, 0.4, 0.2]","[u'blue', u'black', u'red']","[u'left', u'middle', u'right']","[0.8, 0.4, 0.2]","[u'medium', u'low', u'high']","black",50,"middle","low","False","False",858,5900,NA
"AW6O5FZEZ6EBX","Sat Oct 03 2020 08:26:25 GMT-0700 (Pacific Daylight Time)","Sat Oct 03 2020 08:35:05 GMT-0700 (Pacific Daylight Time)","Mozilla/5.0 (Windows NT 6.3; Win64; x64) AppleWebKit/537.36 (KHTML, like Gecko) Chrome/85.0.4183.121 Safari/537.36",102,"[0.9, 0.5, 0.1]","[0.8, 0.4, 0.2]","[u'blue', u'black', u'red']","[u'left', u'middle', u'right']","[0.8, 0.4, 0.2]","[u'medium', u'low', u'high']","red",51,"right","high","True","False",548,6000,NA
"AW6O5FZEZ6EBX","Sat Oct 03 2020 08:26:25 GMT-0700 (Pacific Daylight Time)","Sat Oct 03 2020 08:35:05 GMT-0700 (Pacific Daylight Time)","Mozilla/5.0 (Windows NT 6.3; Win64; x64) AppleWebKit/537.36 (KHTML, like Gecko) Chrome/85.0.4183.121 Safari/537.36",103,"[0.9, 0.5, 0.1]","[0.8, 0.4, 0.2]","[u'blue', u'black', u'red']","[u'left', u'middle', u'right']","[0.8, 0.4, 0.2]","[u'medium', u'low', u'high']","red",51,"right","high","True","False",1057,6100,NA
"AW6O5FZEZ6EBX","Sat Oct 03 2020 08:26:25 GMT-0700 (Pacific Daylight Time)","Sat Oct 03 2020 08:35:05 GMT-0700 (Pacific Daylight Time)","Mozilla/5.0 (Windows NT 6.3; Win64; x64) AppleWebKit/537.36 (KHTML, like Gecko) Chrome/85.0.4183.121 Safari/537.36",104,"[0.9, 0.5, 0.1]","[0.8, 0.4, 0.2]","[u'blue', u'black', u'red']","[u'left', u'middle', u'right']","[0.8, 0.4, 0.2]","[u'medium', u'low', u'high']","red",51,"right","high","True","False",88,6200,NA
"AW6O5FZEZ6EBX","Sat Oct 03 2020 08:26:25 GMT-0700 (Pacific Daylight Time)","Sat Oct 03 2020 08:35:05 GMT-0700 (Pacific Daylight Time)","Mozilla/5.0 (Windows NT 6.3; Win64; x64) AppleWebKit/537.36 (KHTML, like Gecko) Chrome/85.0.4183.121 Safari/537.36",105,"[0.9, 0.5, 0.1]","[0.8, 0.4, 0.2]","[u'blue', u'black', u'red']","[u'left', u'middle', u'right']","[0.8, 0.4, 0.2]","[u'medium', u'low', u'high']","red",51,"right","high","True","False",509,6300,NA
"AW6O5FZEZ6EBX","Sat Oct 03 2020 08:26:25 GMT-0700 (Pacific Daylight Time)","Sat Oct 03 2020 08:35:05 GMT-0700 (Pacific Daylight Time)","Mozilla/5.0 (Windows NT 6.3; Win64; x64) AppleWebKit/537.36 (KHTML, like Gecko) Chrome/85.0.4183.121 Safari/537.36",106,"[0.9, 0.5, 0.1]","[0.8, 0.4, 0.2]","[u'blue', u'black', u'red']","[u'left', u'middle', u'right']","[0.8, 0.4, 0.2]","[u'medium', u'low', u'high']","red",51,"right","high","True","False",202,6400,NA
"AW6O5FZEZ6EBX","Sat Oct 03 2020 08:26:25 GMT-0700 (Pacific Daylight Time)","Sat Oct 03 2020 08:35:05 GMT-0700 (Pacific Daylight Time)","Mozilla/5.0 (Windows NT 6.3; Win64; x64) AppleWebKit/537.36 (KHTML, like Gecko) Chrome/85.0.4183.121 Safari/537.36",107,"[0.9, 0.5, 0.1]","[0.8, 0.4, 0.2]","[u'blue', u'black', u'red']","[u'left', u'middle', u'right']","[0.8, 0.4, 0.2]","[u'medium', u'low', u'high']","red",51,"right","high","True","True",393,6500,NA
"AW6O5FZEZ6EBX","Sat Oct 03 2020 08:26:25 GMT-0700 (Pacific Daylight Time)","Sat Oct 03 2020 08:35:05 GMT-0700 (Pacific Daylight Time)","Mozilla/5.0 (Windows NT 6.3; Win64; x64) AppleWebKit/537.36 (KHTML, like Gecko) Chrome/85.0.4183.121 Safari/537.36",108,"[0.9, 0.5, 0.1]","[0.8, 0.4, 0.2]","[u'blue', u'black', u'red']","[u'left', u'middle', u'right']","[0.8, 0.4, 0.2]","[u'medium', u'high', u'low']","red",51,"right","low","True","False",371,6600,NA
"AW6O5FZEZ6EBX","Sat Oct 03 2020 08:26:25 GMT-0700 (Pacific Daylight Time)","Sat Oct 03 2020 08:35:05 GMT-0700 (Pacific Daylight Time)","Mozilla/5.0 (Windows NT 6.3; Win64; x64) AppleWebKit/537.36 (KHTML, like Gecko) Chrome/85.0.4183.121 Safari/537.36",109,"[0.9, 0.5, 0.1]","[0.8, 0.4, 0.2]","[u'blue', u'black', u'red']","[u'left', u'middle', u'right']","[0.8, 0.4, 0.2]","[u'medium', u'high', u'low']","red",51,"right","low","False","False",3313,6550,NA
"AW6O5FZEZ6EBX","Sat Oct 03 2020 08:26:25 GMT-0700 (Pacific Daylight Time)","Sat Oct 03 2020 08:35:05 GMT-0700 (Pacific Daylight Time)","Mozilla/5.0 (Windows NT 6.3; Win64; x64) AppleWebKit/537.36 (KHTML, like Gecko) Chrome/85.0.4183.121 Safari/537.36",110,"[0.9, 0.5, 0.1]","[0.8, 0.4, 0.2]","[u'blue', u'black', u'red']","[u'left', u'middle', u'right']","[0.8, 0.4, 0.2]","[u'medium', u'high', u'low']","black",50,"middle","high","True","False",528,6650,NA
"AW6O5FZEZ6EBX","Sat Oct 03 2020 08:26:25 GMT-0700 (Pacific Daylight Time)","Sat Oct 03 2020 08:35:05 GMT-0700 (Pacific Daylight Time)","Mozilla/5.0 (Windows NT 6.3; Win64; x64) AppleWebKit/537.36 (KHTML, like Gecko) Chrome/85.0.4183.121 Safari/537.36",111,"[0.9, 0.5, 0.1]","[0.8, 0.4, 0.2]","[u'blue', u'black', u'red']","[u'left', u'middle', u'right']","[0.8, 0.4, 0.2]","[u'medium', u'high', u'low']","black",50,"middle","high","True","False",656,6750,NA
"AW6O5FZEZ6EBX","Sat Oct 03 2020 08:26:25 GMT-0700 (Pacific Daylight Time)","Sat Oct 03 2020 08:35:05 GMT-0700 (Pacific Daylight Time)","Mozilla/5.0 (Windows NT 6.3; Win64; x64) AppleWebKit/537.36 (KHTML, like Gecko) Chrome/85.0.4183.121 Safari/537.36",112,"[0.9, 0.5, 0.1]","[0.8, 0.4, 0.2]","[u'blue', u'black', u'red']","[u'left', u'middle', u'right']","[0.8, 0.4, 0.2]","[u'medium', u'high', u'low']","black",50,"middle","high","True","False",88,6850,NA
"AW6O5FZEZ6EBX","Sat Oct 03 2020 08:26:25 GMT-0700 (Pacific Daylight Time)","Sat Oct 03 2020 08:35:05 GMT-0700 (Pacific Daylight Time)","Mozilla/5.0 (Windows NT 6.3; Win64; x64) AppleWebKit/537.36 (KHTML, like Gecko) Chrome/85.0.4183.121 Safari/537.36",113,"[0.9, 0.5, 0.1]","[0.8, 0.4, 0.2]","[u'blue', u'black', u'red']","[u'left', u'middle', u'right']","[0.8, 0.4, 0.2]","[u'medium', u'high', u'low']","black",50,"middle","high","True","False",154,6950,NA
"AW6O5FZEZ6EBX","Sat Oct 03 2020 08:26:25 GMT-0700 (Pacific Daylight Time)","Sat Oct 03 2020 08:35:05 GMT-0700 (Pacific Daylight Time)","Mozilla/5.0 (Windows NT 6.3; Win64; x64) AppleWebKit/537.36 (KHTML, like Gecko) Chrome/85.0.4183.121 Safari/537.36",114,"[0.9, 0.5, 0.1]","[0.8, 0.4, 0.2]","[u'blue', u'black', u'red']","[u'left', u'middle', u'right']","[0.8, 0.4, 0.2]","[u'medium', u'high', u'low']","black",50,"middle","high","False","False",512,6900,NA
"AW6O5FZEZ6EBX","Sat Oct 03 2020 08:26:25 GMT-0700 (Pacific Daylight Time)","Sat Oct 03 2020 08:35:05 GMT-0700 (Pacific Daylight Time)","Mozilla/5.0 (Windows NT 6.3; Win64; x64) AppleWebKit/537.36 (KHTML, like Gecko) Chrome/85.0.4183.121 Safari/537.36",115,"[0.9, 0.5, 0.1]","[0.8, 0.4, 0.2]","[u'blue', u'black', u'red']","[u'left', u'middle', u'right']","[0.8, 0.4, 0.2]","[u'medium', u'high', u'low']","blue",49,"left","medium","False","False",268,6850,NA
"AW6O5FZEZ6EBX","Sat Oct 03 2020 08:26:25 GMT-0700 (Pacific Daylight Time)","Sat Oct 03 2020 08:35:05 GMT-0700 (Pacific Daylight Time)","Mozilla/5.0 (Windows NT 6.3; Win64; x64) AppleWebKit/537.36 (KHTML, like Gecko) Chrome/85.0.4183.121 Safari/537.36",116,"[0.9, 0.5, 0.1]","[0.8, 0.4, 0.2]","[u'blue', u'black', u'red']","[u'left', u'middle', u'right']","[0.8, 0.4, 0.2]","[u'medium', u'high', u'low']","blue",49,"left","medium","False","False",88,6800,NA
"AW6O5FZEZ6EBX","Sat Oct 03 2020 08:26:25 GMT-0700 (Pacific Daylight Time)","Sat Oct 03 2020 08:35:05 GMT-0700 (Pacific Daylight Time)","Mozilla/5.0 (Windows NT 6.3; Win64; x64) AppleWebKit/537.36 (KHTML, like Gecko) Chrome/85.0.4183.121 Safari/537.36",117,"[0.9, 0.5, 0.1]","[0.8, 0.4, 0.2]","[u'blue', u'black', u'red']","[u'left', u'middle', u'right']","[0.8, 0.4, 0.2]","[u'medium', u'high', u'low']","red",51,"right","low","False","False",2907,6750,NA
"AW6O5FZEZ6EBX","Sat Oct 03 2020 08:26:25 GMT-0700 (Pacific Daylight Time)","Sat Oct 03 2020 08:35:05 GMT-0700 (Pacific Daylight Time)","Mozilla/5.0 (Windows NT 6.3; Win64; x64) AppleWebKit/537.36 (KHTML, like Gecko) Chrome/85.0.4183.121 Safari/537.36",118,"[0.9, 0.5, 0.1]","[0.8, 0.4, 0.2]","[u'blue', u'black', u'red']","[u'left', u'middle', u'right']","[0.8, 0.4, 0.2]","[u'medium', u'high', u'low']","black",50,"middle","high","True","False",270,6850,NA
"AW6O5FZEZ6EBX","Sat Oct 03 2020 08:26:25 GMT-0700 (Pacific Daylight Time)","Sat Oct 03 2020 08:35:05 GMT-0700 (Pacific Daylight Time)","Mozilla/5.0 (Windows NT 6.3; Win64; x64) AppleWebKit/537.36 (KHTML, like Gecko) Chrome/85.0.4183.121 Safari/537.36",119,"[0.9, 0.5, 0.1]","[0.8, 0.4, 0.2]","[u'blue', u'black', u'red']","[u'left', u'middle', u'right']","[0.8, 0.4, 0.2]","[u'medium', u'high', u'low']","black",50,"middle","high","True","False",1322,6950,NA
"AW6O5FZEZ6EBX","Sat Oct 03 2020 08:26:25 GMT-0700 (Pacific Daylight Time)","Sat Oct 03 2020 08:35:05 GMT-0700 (Pacific Daylight Time)","Mozilla/5.0 (Windows NT 6.3; Win64; x64) AppleWebKit/537.36 (KHTML, like Gecko) Chrome/85.0.4183.121 Safari/537.36",120,"[0.9, 0.5, 0.1]","[0.8, 0.4, 0.2]","[u'blue', u'black', u'red']","[u'left', u'middle', u'right']","[0.8, 0.4, 0.2]","[u'medium', u'high', u'low']","black",50,"middle","high","True","False",1023,7050,NA
"AW6O5FZEZ6EBX","Sat Oct 03 2020 08:26:25 GMT-0700 (Pacific Daylight Time)","Sat Oct 03 2020 08:35:05 GMT-0700 (Pacific Daylight Time)","Mozilla/5.0 (Windows NT 6.3; Win64; x64) AppleWebKit/537.36 (KHTML, like Gecko) Chrome/85.0.4183.121 Safari/537.36",121,"[0.9, 0.5, 0.1]","[0.8, 0.4, 0.2]","[u'blue', u'black', u'red']","[u'left', u'middle', u'right']","[0.8, 0.4, 0.2]","[u'high', u'medium', u'low']","black",50,"middle","medium","False","False",939,7000,NA
"AW6O5FZEZ6EBX","Sat Oct 03 2020 08:26:25 GMT-0700 (Pacific Daylight Time)","Sat Oct 03 2020 08:35:05 GMT-0700 (Pacific Daylight Time)","Mozilla/5.0 (Windows NT 6.3; Win64; x64) AppleWebKit/537.36 (KHTML, like Gecko) Chrome/85.0.4183.121 Safari/537.36",122,"[0.9, 0.5, 0.1]","[0.8, 0.4, 0.2]","[u'blue', u'black', u'red']","[u'left', u'middle', u'right']","[0.8, 0.4, 0.2]","[u'high', u'medium', u'low']","red",51,"right","low","True","False",826,7100,NA
"AW6O5FZEZ6EBX","Sat Oct 03 2020 08:26:25 GMT-0700 (Pacific Daylight Time)","Sat Oct 03 2020 08:35:05 GMT-0700 (Pacific Daylight Time)","Mozilla/5.0 (Windows NT 6.3; Win64; x64) AppleWebKit/537.36 (KHTML, like Gecko) Chrome/85.0.4183.121 Safari/537.36",123,"[0.9, 0.5, 0.1]","[0.8, 0.4, 0.2]","[u'blue', u'black', u'red']","[u'left', u'middle', u'right']","[0.8, 0.4, 0.2]","[u'high', u'medium', u'low']","red",51,"right","low","False","False",639,7050,NA
"AW6O5FZEZ6EBX","Sat Oct 03 2020 08:26:25 GMT-0700 (Pacific Daylight Time)","Sat Oct 03 2020 08:35:05 GMT-0700 (Pacific Daylight Time)","Mozilla/5.0 (Windows NT 6.3; Win64; x64) AppleWebKit/537.36 (KHTML, like Gecko) Chrome/85.0.4183.121 Safari/537.36",124,"[0.9, 0.5, 0.1]","[0.8, 0.4, 0.2]","[u'blue', u'black', u'red']","[u'left', u'middle', u'right']","[0.8, 0.4, 0.2]","[u'high', u'medium', u'low']","red",51,"right","low","False","False",562,7000,NA
"AW6O5FZEZ6EBX","Sat Oct 03 2020 08:26:25 GMT-0700 (Pacific Daylight Time)","Sat Oct 03 2020 08:35:05 GMT-0700 (Pacific Daylight Time)","Mozilla/5.0 (Windows NT 6.3; Win64; x64) AppleWebKit/537.36 (KHTML, like Gecko) Chrome/85.0.4183.121 Safari/537.36",125,"[0.9, 0.5, 0.1]","[0.8, 0.4, 0.2]","[u'blue', u'black', u'red']","[u'left', u'middle', u'right']","[0.8, 0.4, 0.2]","[u'high', u'medium', u'low']","black",50,"middle","medium","False","False",38,6950,NA
"AW6O5FZEZ6EBX","Sat Oct 03 2020 08:26:25 GMT-0700 (Pacific Daylight Time)","Sat Oct 03 2020 08:35:05 GMT-0700 (Pacific Daylight Time)","Mozilla/5.0 (Windows NT 6.3; Win64; x64) AppleWebKit/537.36 (KHTML, like Gecko) Chrome/85.0.4183.121 Safari/537.36",126,"[0.9, 0.5, 0.1]","[0.8, 0.4, 0.2]","[u'blue', u'black', u'red']","[u'left', u'middle', u'right']","[0.8, 0.4, 0.2]","[u'high', u'medium', u'low']","black",50,"middle","medium","False","False",194,6900,NA
"AW6O5FZEZ6EBX","Sat Oct 03 2020 08:26:25 GMT-0700 (Pacific Daylight Time)","Sat Oct 03 2020 08:35:05 GMT-0700 (Pacific Daylight Time)","Mozilla/5.0 (Windows NT 6.3; Win64; x64) AppleWebKit/537.36 (KHTML, like Gecko) Chrome/85.0.4183.121 Safari/537.36",127,"[0.9, 0.5, 0.1]","[0.8, 0.4, 0.2]","[u'blue', u'black', u'red']","[u'left', u'middle', u'right']","[0.8, 0.4, 0.2]","[u'high', u'medium', u'low']","blue",49,"left","high","False","False",37,6850,NA
"AW6O5FZEZ6EBX","Sat Oct 03 2020 08:26:25 GMT-0700 (Pacific Daylight Time)","Sat Oct 03 2020 08:35:05 GMT-0700 (Pacific Daylight Time)","Mozilla/5.0 (Windows NT 6.3; Win64; x64) AppleWebKit/537.36 (KHTML, like Gecko) Chrome/85.0.4183.121 Safari/537.36",128,"[0.9, 0.5, 0.1]","[0.8, 0.4, 0.2]","[u'blue', u'black', u'red']","[u'left', u'middle', u'right']","[0.8, 0.4, 0.2]","[u'high', u'medium', u'low']","red",51,"right","low","False","False",473,6800,NA
"AW6O5FZEZ6EBX","Sat Oct 03 2020 08:26:25 GMT-0700 (Pacific Daylight Time)","Sat Oct 03 2020 08:35:05 GMT-0700 (Pacific Daylight Time)","Mozilla/5.0 (Windows NT 6.3; Win64; x64) AppleWebKit/537.36 (KHTML, like Gecko) Chrome/85.0.4183.121 Safari/537.36",129,"[0.9, 0.5, 0.1]","[0.8, 0.4, 0.2]","[u'blue', u'black', u'red']","[u'left', u'middle', u'right']","[0.8, 0.4, 0.2]","[u'high', u'medium', u'low']","red",51,"right","low","True","False",247,6900,NA
"AW6O5FZEZ6EBX","Sat Oct 03 2020 08:26:25 GMT-0700 (Pacific Daylight Time)","Sat Oct 03 2020 08:35:05 GMT-0700 (Pacific Daylight Time)","Mozilla/5.0 (Windows NT 6.3; Win64; x64) AppleWebKit/537.36 (KHTML, like Gecko) Chrome/85.0.4183.121 Safari/537.36",130,"[0.9, 0.5, 0.1]","[0.8, 0.4, 0.2]","[u'blue', u'black', u'red']","[u'left', u'middle', u'right']","[0.8, 0.4, 0.2]","[u'high', u'medium', u'low']","red",51,"right","low","False","False",729,6850,NA
"AW6O5FZEZ6EBX","Sat Oct 03 2020 08:26:25 GMT-0700 (Pacific Daylight Time)","Sat Oct 03 2020 08:35:05 GMT-0700 (Pacific Daylight Time)","Mozilla/5.0 (Windows NT 6.3; Win64; x64) AppleWebKit/537.36 (KHTML, like Gecko) Chrome/85.0.4183.121 Safari/537.36",131,"[0.9, 0.5, 0.1]","[0.8, 0.4, 0.2]","[u'blue', u'black', u'red']","[u'left', u'middle', u'right']","[0.8, 0.4, 0.2]","[u'high', u'medium', u'low']","red",51,"right","low","False","False",649,6800,NA
"AW6O5FZEZ6EBX","Sat Oct 03 2020 08:26:25 GMT-0700 (Pacific Daylight Time)","Sat Oct 03 2020 08:35:05 GMT-0700 (Pacific Daylight Time)","Mozilla/5.0 (Windows NT 6.3; Win64; x64) AppleWebKit/537.36 (KHTML, like Gecko) Chrome/85.0.4183.121 Safari/537.36",132,"[0.9, 0.5, 0.1]","[0.8, 0.4, 0.2]","[u'blue', u'black', u'red']","[u'left', u'middle', u'right']","[0.8, 0.4, 0.2]","[u'high', u'medium', u'low']","red",51,"right","low","False","False",264,6750,NA
"AW6O5FZEZ6EBX","Sat Oct 03 2020 08:26:25 GMT-0700 (Pacific Daylight Time)","Sat Oct 03 2020 08:35:05 GMT-0700 (Pacific Daylight Time)","Mozilla/5.0 (Windows NT 6.3; Win64; x64) AppleWebKit/537.36 (KHTML, like Gecko) Chrome/85.0.4183.121 Safari/537.36",133,"[0.9, 0.5, 0.1]","[0.8, 0.4, 0.2]","[u'blue', u'black', u'red']","[u'left', u'middle', u'right']","[0.8, 0.4, 0.2]","[u'high', u'medium', u'low']","red",51,"right","low","False","False",5144,6700,NA
"AW6O5FZEZ6EBX","Sat Oct 03 2020 08:26:25 GMT-0700 (Pacific Daylight Time)","Sat Oct 03 2020 08:35:05 GMT-0700 (Pacific Daylight Time)","Mozilla/5.0 (Windows NT 6.3; Win64; x64) AppleWebKit/537.36 (KHTML, like Gecko) Chrome/85.0.4183.121 Safari/537.36",134,"[0.9, 0.5, 0.1]","[0.8, 0.4, 0.2]","[u'blue', u'black', u'red']","[u'left', u'middle', u'right']","[0.8, 0.4, 0.2]","[u'high', u'medium', u'low']","red",51,"right","low","False","False",391,6650,NA
"AW6O5FZEZ6EBX","Sat Oct 03 2020 08:26:25 GMT-0700 (Pacific Daylight Time)","Sat Oct 03 2020 08:35:05 GMT-0700 (Pacific Daylight Time)","Mozilla/5.0 (Windows NT 6.3; Win64; x64) AppleWebKit/537.36 (KHTML, like Gecko) Chrome/85.0.4183.121 Safari/537.36",135,"[0.9, 0.5, 0.1]","[0.8, 0.4, 0.2]","[u'blue', u'black', u'red']","[u'left', u'middle', u'right']","[0.8, 0.4, 0.2]","[u'high', u'medium', u'low']","red",51,"right","low","False","False",959,6600,NA
"AW6O5FZEZ6EBX","Sat Oct 03 2020 08:26:25 GMT-0700 (Pacific Daylight Time)","Sat Oct 03 2020 08:35:05 GMT-0700 (Pacific Daylight Time)","Mozilla/5.0 (Windows NT 6.3; Win64; x64) AppleWebKit/537.36 (KHTML, like Gecko) Chrome/85.0.4183.121 Safari/537.36",136,"[0.9, 0.5, 0.1]","[0.8, 0.4, 0.2]","[u'blue', u'black', u'red']","[u'left', u'middle', u'right']","[0.8, 0.4, 0.2]","[u'high', u'medium', u'low']","red",51,"right","low","False","False",2062,6550,NA
"AW6O5FZEZ6EBX","Sat Oct 03 2020 08:26:25 GMT-0700 (Pacific Daylight Time)","Sat Oct 03 2020 08:35:05 GMT-0700 (Pacific Daylight Time)","Mozilla/5.0 (Windows NT 6.3; Win64; x64) AppleWebKit/537.36 (KHTML, like Gecko) Chrome/85.0.4183.121 Safari/537.36",137,"[0.9, 0.5, 0.1]","[0.8, 0.4, 0.2]","[u'blue', u'black', u'red']","[u'left', u'middle', u'right']","[0.8, 0.4, 0.2]","[u'high', u'medium', u'low']","red",51,"right","low","False","False",499,6500,NA
"AW6O5FZEZ6EBX","Sat Oct 03 2020 08:26:25 GMT-0700 (Pacific Daylight Time)","Sat Oct 03 2020 08:35:05 GMT-0700 (Pacific Daylight Time)","Mozilla/5.0 (Windows NT 6.3; Win64; x64) AppleWebKit/537.36 (KHTML, like Gecko) Chrome/85.0.4183.121 Safari/537.36",138,"[0.9, 0.5, 0.1]","[0.8, 0.4, 0.2]","[u'blue', u'black', u'red']","[u'left', u'middle', u'right']","[0.8, 0.4, 0.2]","[u'high', u'medium', u'low']","red",51,"right","low","False","False",291,6450,NA
"AW6O5FZEZ6EBX","Sat Oct 03 2020 08:26:25 GMT-0700 (Pacific Daylight Time)","Sat Oct 03 2020 08:35:05 GMT-0700 (Pacific Daylight Time)","Mozilla/5.0 (Windows NT 6.3; Win64; x64) AppleWebKit/537.36 (KHTML, like Gecko) Chrome/85.0.4183.121 Safari/537.36",139,"[0.9, 0.5, 0.1]","[0.8, 0.4, 0.2]","[u'blue', u'black', u'red']","[u'left', u'middle', u'right']","[0.8, 0.4, 0.2]","[u'high', u'medium', u'low']","red",51,"right","low","False","False",3629,6400,NA
"AW6O5FZEZ6EBX","Sat Oct 03 2020 08:26:25 GMT-0700 (Pacific Daylight Time)","Sat Oct 03 2020 08:35:05 GMT-0700 (Pacific Daylight Time)","Mozilla/5.0 (Windows NT 6.3; Win64; x64) AppleWebKit/537.36 (KHTML, like Gecko) Chrome/85.0.4183.121 Safari/537.36",140,"[0.9, 0.5, 0.1]","[0.8, 0.4, 0.2]","[u'blue', u'black', u'red']","[u'left', u'middle', u'right']","[0.8, 0.4, 0.2]","[u'high', u'medium', u'low']","black",50,"middle","medium","True","False",677,6500,NA
"AW6O5FZEZ6EBX","Sat Oct 03 2020 08:26:25 GMT-0700 (Pacific Daylight Time)","Sat Oct 03 2020 08:35:05 GMT-0700 (Pacific Daylight Time)","Mozilla/5.0 (Windows NT 6.3; Win64; x64) AppleWebKit/537.36 (KHTML, like Gecko) Chrome/85.0.4183.121 Safari/537.36",141,"[0.9, 0.5, 0.1]","[0.8, 0.4, 0.2]","[u'blue', u'black', u'red']","[u'left', u'middle', u'right']","[0.8, 0.4, 0.2]","[u'high', u'medium', u'low']","red",51,"right","low","True","False",8587,6600,NA
"AW6O5FZEZ6EBX","Sat Oct 03 2020 08:26:25 GMT-0700 (Pacific Daylight Time)","Sat Oct 03 2020 08:35:05 GMT-0700 (Pacific Daylight Time)","Mozilla/5.0 (Windows NT 6.3; Win64; x64) AppleWebKit/537.36 (KHTML, like Gecko) Chrome/85.0.4183.121 Safari/537.36",142,"[0.9, 0.5, 0.1]","[0.8, 0.4, 0.2]","[u'blue', u'black', u'red']","[u'left', u'middle', u'right']","[0.8, 0.4, 0.2]","[u'high', u'medium', u'low']","red",51,"right","low","True","False",155,6700,NA
"AW6O5FZEZ6EBX","Sat Oct 03 2020 08:26:25 GMT-0700 (Pacific Daylight Time)","Sat Oct 03 2020 08:35:05 GMT-0700 (Pacific Daylight Time)","Mozilla/5.0 (Windows NT 6.3; Win64; x64) AppleWebKit/537.36 (KHTML, like Gecko) Chrome/85.0.4183.121 Safari/537.36",143,"[0.9, 0.5, 0.1]","[0.8, 0.4, 0.2]","[u'blue', u'black', u'red']","[u'left', u'middle', u'right']","[0.8, 0.4, 0.2]","[u'high', u'medium', u'low']","red",51,"right","low","False","False",1358,6650,NA
"AW6O5FZEZ6EBX","Sat Oct 03 2020 08:26:25 GMT-0700 (Pacific Daylight Time)","Sat Oct 03 2020 08:35:05 GMT-0700 (Pacific Daylight Time)","Mozilla/5.0 (Windows NT 6.3; Win64; x64) AppleWebKit/537.36 (KHTML, like Gecko) Chrome/85.0.4183.121 Safari/537.36",144,"[0.9, 0.5, 0.1]","[0.8, 0.4, 0.2]","[u'blue', u'black', u'red']","[u'left', u'middle', u'right']","[0.8, 0.4, 0.2]","[u'high', u'medium', u'low']","red",51,"right","low","False","False",257,6600,NA
"AW6O5FZEZ6EBX","Sat Oct 03 2020 08:26:25 GMT-0700 (Pacific Daylight Time)","Sat Oct 03 2020 08:35:05 GMT-0700 (Pacific Daylight Time)","Mozilla/5.0 (Windows NT 6.3; Win64; x64) AppleWebKit/537.36 (KHTML, like Gecko) Chrome/85.0.4183.121 Safari/537.36",145,"[0.9, 0.5, 0.1]","[0.8, 0.4, 0.2]","[u'blue', u'black', u'red']","[u'left', u'middle', u'right']","[0.8, 0.4, 0.2]","[u'high', u'medium', u'low']","red",51,"right","low","False","False",297,6550,NA
"AW6O5FZEZ6EBX","Sat Oct 03 2020 08:26:25 GMT-0700 (Pacific Daylight Time)","Sat Oct 03 2020 08:35:05 GMT-0700 (Pacific Daylight Time)","Mozilla/5.0 (Windows NT 6.3; Win64; x64) AppleWebKit/537.36 (KHTML, like Gecko) Chrome/85.0.4183.121 Safari/537.36",146,"[0.9, 0.5, 0.1]","[0.8, 0.4, 0.2]","[u'blue', u'black', u'red']","[u'left', u'middle', u'right']","[0.8, 0.4, 0.2]","[u'high', u'medium', u'low']","red",51,"right","low","False","False",249,6500,NA
"AW6O5FZEZ6EBX","Sat Oct 03 2020 08:26:25 GMT-0700 (Pacific Daylight Time)","Sat Oct 03 2020 08:35:05 GMT-0700 (Pacific Daylight Time)","Mozilla/5.0 (Windows NT 6.3; Win64; x64) AppleWebKit/537.36 (KHTML, like Gecko) Chrome/85.0.4183.121 Safari/537.36",147,"[0.9, 0.5, 0.1]","[0.8, 0.4, 0.2]","[u'blue', u'black', u'red']","[u'left', u'middle', u'right']","[0.8, 0.4, 0.2]","[u'high', u'medium', u'low']","black",50,"middle","medium","False","False",96,6450,NA
"AW6O5FZEZ6EBX","Sat Oct 03 2020 08:26:25 GMT-0700 (Pacific Daylight Time)","Sat Oct 03 2020 08:35:05 GMT-0700 (Pacific Daylight Time)","Mozilla/5.0 (Windows NT 6.3; Win64; x64) AppleWebKit/537.36 (KHTML, like Gecko) Chrome/85.0.4183.121 Safari/537.36",148,"[0.9, 0.5, 0.1]","[0.8, 0.4, 0.2]","[u'blue', u'black', u'red']","[u'left', u'middle', u'right']","[0.8, 0.4, 0.2]","[u'high', u'medium', u'low']","blue",49,"left","high","True","False",113,6550,NA
"AW6O5FZEZ6EBX","Sat Oct 03 2020 08:26:25 GMT-0700 (Pacific Daylight Time)","Sat Oct 03 2020 08:35:05 GMT-0700 (Pacific Daylight Time)","Mozilla/5.0 (Windows NT 6.3; Win64; x64) AppleWebKit/537.36 (KHTML, like Gecko) Chrome/85.0.4183.121 Safari/537.36",149,"[0.9, 0.5, 0.1]","[0.8, 0.4, 0.2]","[u'blue', u'black', u'red']","[u'left', u'middle', u'right']","[0.8, 0.4, 0.2]","[u'high', u'medium', u'low']","blue",49,"left","high","True","False",317,6650,NA
"AW6O5FZEZ6EBX","Sat Oct 03 2020 08:26:25 GMT-0700 (Pacific Daylight Time)","Sat Oct 03 2020 08:35:05 GMT-0700 (Pacific Daylight Time)","Mozilla/5.0 (Windows NT 6.3; Win64; x64) AppleWebKit/537.36 (KHTML, like Gecko) Chrome/85.0.4183.121 Safari/537.36",150,"[0.9, 0.5, 0.1]","[0.8, 0.4, 0.2]","[u'blue', u'black', u'red']","[u'left', u'middle', u'right']","[0.8, 0.4, 0.2]","[u'high', u'medium', u'low']","blue",49,"left","high","True","False",289,6750,NA
"AW6O5FZEZ6EBX","Sat Oct 03 2020 08:26:25 GMT-0700 (Pacific Daylight Time)","Sat Oct 03 2020 08:35:05 GMT-0700 (Pacific Daylight Time)","Mozilla/5.0 (Windows NT 6.3; Win64; x64) AppleWebKit/537.36 (KHTML, like Gecko) Chrome/85.0.4183.121 Safari/537.36",151,"[0.9, 0.5, 0.1]","[0.8, 0.4, 0.2]","[u'blue', u'black', u'red']","[u'left', u'middle', u'right']","[0.8, 0.4, 0.2]","[u'high', u'medium', u'low']","blue",49,"left","high","True","False",396,6850,NA
"AW6O5FZEZ6EBX","Sat Oct 03 2020 08:26:25 GMT-0700 (Pacific Daylight Time)","Sat Oct 03 2020 08:35:05 GMT-0700 (Pacific Daylight Time)","Mozilla/5.0 (Windows NT 6.3; Win64; x64) AppleWebKit/537.36 (KHTML, like Gecko) Chrome/85.0.4183.121 Safari/537.36",152,"[0.9, 0.5, 0.1]","[0.8, 0.4, 0.2]","[u'blue', u'black', u'red']","[u'left', u'middle', u'right']","[0.8, 0.4, 0.2]","[u'high', u'medium', u'low']","blue",49,"left","high","True","False",551,6950,NA
"AW6O5FZEZ6EBX","Sat Oct 03 2020 08:26:25 GMT-0700 (Pacific Daylight Time)","Sat Oct 03 2020 08:35:05 GMT-0700 (Pacific Daylight Time)","Mozilla/5.0 (Windows NT 6.3; Win64; x64) AppleWebKit/537.36 (KHTML, like Gecko) Chrome/85.0.4183.121 Safari/537.36",153,"[0.9, 0.5, 0.1]","[0.8, 0.4, 0.2]","[u'blue', u'black', u'red']","[u'left', u'middle', u'right']","[0.8, 0.4, 0.2]","[u'high', u'medium', u'low']","blue",49,"left","high","True","False",307,7050,NA
"AW6O5FZEZ6EBX","Sat Oct 03 2020 08:26:25 GMT-0700 (Pacific Daylight Time)","Sat Oct 03 2020 08:35:05 GMT-0700 (Pacific Daylight Time)","Mozilla/5.0 (Windows NT 6.3; Win64; x64) AppleWebKit/537.36 (KHTML, like Gecko) Chrome/85.0.4183.121 Safari/537.36",154,"[0.9, 0.5, 0.1]","[0.8, 0.4, 0.2]","[u'blue', u'black', u'red']","[u'left', u'middle', u'right']","[0.8, 0.4, 0.2]","[u'high', u'medium', u'low']","blue",49,"left","high","True","False",427,7150,NA
"AW6O5FZEZ6EBX","Sat Oct 03 2020 08:26:25 GMT-0700 (Pacific Daylight Time)","Sat Oct 03 2020 08:35:05 GMT-0700 (Pacific Daylight Time)","Mozilla/5.0 (Windows NT 6.3; Win64; x64) AppleWebKit/537.36 (KHTML, like Gecko) Chrome/85.0.4183.121 Safari/537.36",155,"[0.9, 0.5, 0.1]","[0.8, 0.4, 0.2]","[u'blue', u'black', u'red']","[u'left', u'middle', u'right']","[0.8, 0.4, 0.2]","[u'high', u'medium', u'low']","blue",49,"left","high","True","False",2139,7250,NA
"AW6O5FZEZ6EBX","Sat Oct 03 2020 08:26:25 GMT-0700 (Pacific Daylight Time)","Sat Oct 03 2020 08:35:05 GMT-0700 (Pacific Daylight Time)","Mozilla/5.0 (Windows NT 6.3; Win64; x64) AppleWebKit/537.36 (KHTML, like Gecko) Chrome/85.0.4183.121 Safari/537.36",156,"[0.9, 0.5, 0.1]","[0.8, 0.4, 0.2]","[u'blue', u'black', u'red']","[u'left', u'middle', u'right']","[0.8, 0.4, 0.2]","[u'high', u'medium', u'low']","blue",49,"left","high","True","True",135,7350,NA
"AW6O5FZEZ6EBX","Sat Oct 03 2020 08:26:25 GMT-0700 (Pacific Daylight Time)","Sat Oct 03 2020 08:35:05 GMT-0700 (Pacific Daylight Time)","Mozilla/5.0 (Windows NT 6.3; Win64; x64) AppleWebKit/537.36 (KHTML, like Gecko) Chrome/85.0.4183.121 Safari/537.36",157,"[0.9, 0.5, 0.1]","[0.8, 0.4, 0.2]","[u'blue', u'black', u'red']","[u'left', u'middle', u'right']","[0.8, 0.4, 0.2]","[u'low', u'high', u'medium']","blue",49,"left","low","False","False",1192,7300,NA
"AW6O5FZEZ6EBX","Sat Oct 03 2020 08:26:25 GMT-0700 (Pacific Daylight Time)","Sat Oct 03 2020 08:35:05 GMT-0700 (Pacific Daylight Time)","Mozilla/5.0 (Windows NT 6.3; Win64; x64) AppleWebKit/537.36 (KHTML, like Gecko) Chrome/85.0.4183.121 Safari/537.36",158,"[0.9, 0.5, 0.1]","[0.8, 0.4, 0.2]","[u'blue', u'black', u'red']","[u'left', u'middle', u'right']","[0.8, 0.4, 0.2]","[u'low', u'high', u'medium']","blue",49,"left","low","False","False",546,7250,NA
"AW6O5FZEZ6EBX","Sat Oct 03 2020 08:26:25 GMT-0700 (Pacific Daylight Time)","Sat Oct 03 2020 08:35:05 GMT-0700 (Pacific Daylight Time)","Mozilla/5.0 (Windows NT 6.3; Win64; x64) AppleWebKit/537.36 (KHTML, like Gecko) Chrome/85.0.4183.121 Safari/537.36",159,"[0.9, 0.5, 0.1]","[0.8, 0.4, 0.2]","[u'blue', u'black', u'red']","[u'left', u'middle', u'right']","[0.8, 0.4, 0.2]","[u'low', u'high', u'medium']","blue",49,"left","low","False","False",285,7200,NA
"AW6O5FZEZ6EBX","Sat Oct 03 2020 08:26:25 GMT-0700 (Pacific Daylight Time)","Sat Oct 03 2020 08:35:05 GMT-0700 (Pacific Daylight Time)","Mozilla/5.0 (Windows NT 6.3; Win64; x64) AppleWebKit/537.36 (KHTML, like Gecko) Chrome/85.0.4183.121 Safari/537.36",160,"[0.9, 0.5, 0.1]","[0.8, 0.4, 0.2]","[u'blue', u'black', u'red']","[u'left', u'middle', u'right']","[0.8, 0.4, 0.2]","[u'low', u'high', u'medium']","blue",49,"left","low","False","False",1598,7150,NA
