"src_subject_id","start_time","end_time","browser","index","first_half_probabilities","second_half_probabilities","deck_color","deck_position","deck_probabilities","deck_contingencies","response_color","key_press","response_position","response_probability","reward_type","trial_type","rt","reward_tally","exclusion_reason"
"ADAL2H41ZBWAK","Sat Oct 03 2020 14:46:40 GMT-0400 (Eastern Daylight Time)","Sat Oct 03 2020 14:57:10 GMT-0400 (Eastern Daylight Time)","Mozilla/5.0 (Windows NT 6.1; Win64; x64) AppleWebKit/537.36 (KHTML, like Gecko) Chrome/85.0.4183.121 Safari/537.36",1,"[0.9, 0.5, 0.1]","[0.8, 0.4, 0.2]","[u'red', u'black', u'blue']","[u'left', u'middle', u'right']","[0.9, 0.5, 0.1]","[u'medium', u'high', u'low']","blue",51,"right","low","False","False",2571,-50,NA
"ADAL2H41ZBWAK","Sat Oct 03 2020 14:46:40 GMT-0400 (Eastern Daylight Time)","Sat Oct 03 2020 14:57:10 GMT-0400 (Eastern Daylight Time)","Mozilla/5.0 (Windows NT 6.1; Win64; x64) AppleWebKit/537.36 (KHTML, like Gecko) Chrome/85.0.4183.121 Safari/537.36",2,"[0.9, 0.5, 0.1]","[0.8, 0.4, 0.2]","[u'red', u'black', u'blue']","[u'left', u'middle', u'right']","[0.9, 0.5, 0.1]","[u'medium', u'high', u'low']","black",50,"middle","high","True","False",2147,50,NA
"ADAL2H41ZBWAK","Sat Oct 03 2020 14:46:40 GMT-0400 (Eastern Daylight Time)","Sat Oct 03 2020 14:57:10 GMT-0400 (Eastern Daylight Time)","Mozilla/5.0 (Windows NT 6.1; Win64; x64) AppleWebKit/537.36 (KHTML, like Gecko) Chrome/85.0.4183.121 Safari/537.36",3,"[0.9, 0.5, 0.1]","[0.8, 0.4, 0.2]","[u'red', u'black', u'blue']","[u'left', u'middle', u'right']","[0.9, 0.5, 0.1]","[u'medium', u'high', u'low']","black",50,"middle","high","True","False",1459,150,NA
"ADAL2H41ZBWAK","Sat Oct 03 2020 14:46:40 GMT-0400 (Eastern Daylight Time)","Sat Oct 03 2020 14:57:10 GMT-0400 (Eastern Daylight Time)","Mozilla/5.0 (Windows NT 6.1; Win64; x64) AppleWebKit/537.36 (KHTML, like Gecko) Chrome/85.0.4183.121 Safari/537.36",4,"[0.9, 0.5, 0.1]","[0.8, 0.4, 0.2]","[u'red', u'black', u'blue']","[u'left', u'middle', u'right']","[0.9, 0.5, 0.1]","[u'medium', u'high', u'low']","red",49,"left","medium","False","False",1377,100,NA
"ADAL2H41ZBWAK","Sat Oct 03 2020 14:46:40 GMT-0400 (Eastern Daylight Time)","Sat Oct 03 2020 14:57:10 GMT-0400 (Eastern Daylight Time)","Mozilla/5.0 (Windows NT 6.1; Win64; x64) AppleWebKit/537.36 (KHTML, like Gecko) Chrome/85.0.4183.121 Safari/537.36",5,"[0.9, 0.5, 0.1]","[0.8, 0.4, 0.2]","[u'red', u'black', u'blue']","[u'left', u'middle', u'right']","[0.9, 0.5, 0.1]","[u'medium', u'high', u'low']","black",50,"middle","high","True","False",494,200,NA
"ADAL2H41ZBWAK","Sat Oct 03 2020 14:46:40 GMT-0400 (Eastern Daylight Time)","Sat Oct 03 2020 14:57:10 GMT-0400 (Eastern Daylight Time)","Mozilla/5.0 (Windows NT 6.1; Win64; x64) AppleWebKit/537.36 (KHTML, like Gecko) Chrome/85.0.4183.121 Safari/537.36",6,"[0.9, 0.5, 0.1]","[0.8, 0.4, 0.2]","[u'red', u'black', u'blue']","[u'left', u'middle', u'right']","[0.9, 0.5, 0.1]","[u'medium', u'high', u'low']","black",50,"middle","high","True","False",734,300,NA
"ADAL2H41ZBWAK","Sat Oct 03 2020 14:46:40 GMT-0400 (Eastern Daylight Time)","Sat Oct 03 2020 14:57:10 GMT-0400 (Eastern Daylight Time)","Mozilla/5.0 (Windows NT 6.1; Win64; x64) AppleWebKit/537.36 (KHTML, like Gecko) Chrome/85.0.4183.121 Safari/537.36",7,"[0.9, 0.5, 0.1]","[0.8, 0.4, 0.2]","[u'red', u'black', u'blue']","[u'left', u'middle', u'right']","[0.9, 0.5, 0.1]","[u'medium', u'high', u'low']","black",50,"middle","high","True","False",739,400,NA
"ADAL2H41ZBWAK","Sat Oct 03 2020 14:46:40 GMT-0400 (Eastern Daylight Time)","Sat Oct 03 2020 14:57:10 GMT-0400 (Eastern Daylight Time)","Mozilla/5.0 (Windows NT 6.1; Win64; x64) AppleWebKit/537.36 (KHTML, like Gecko) Chrome/85.0.4183.121 Safari/537.36",8,"[0.9, 0.5, 0.1]","[0.8, 0.4, 0.2]","[u'red', u'black', u'blue']","[u'left', u'middle', u'right']","[0.9, 0.5, 0.1]","[u'medium', u'high', u'low']","black",50,"middle","high","True","False",668,500,NA
"ADAL2H41ZBWAK","Sat Oct 03 2020 14:46:40 GMT-0400 (Eastern Daylight Time)","Sat Oct 03 2020 14:57:10 GMT-0400 (Eastern Daylight Time)","Mozilla/5.0 (Windows NT 6.1; Win64; x64) AppleWebKit/537.36 (KHTML, like Gecko) Chrome/85.0.4183.121 Safari/537.36",9,"[0.9, 0.5, 0.1]","[0.8, 0.4, 0.2]","[u'red', u'black', u'blue']","[u'left', u'middle', u'right']","[0.9, 0.5, 0.1]","[u'medium', u'high', u'low']","black",50,"middle","high","True","False",499,600,NA
"ADAL2H41ZBWAK","Sat Oct 03 2020 14:46:40 GMT-0400 (Eastern Daylight Time)","Sat Oct 03 2020 14:57:10 GMT-0400 (Eastern Daylight Time)","Mozilla/5.0 (Windows NT 6.1; Win64; x64) AppleWebKit/537.36 (KHTML, like Gecko) Chrome/85.0.4183.121 Safari/537.36",10,"[0.9, 0.5, 0.1]","[0.8, 0.4, 0.2]","[u'red', u'black', u'blue']","[u'left', u'middle', u'right']","[0.9, 0.5, 0.1]","[u'medium', u'high', u'low']","black",50,"middle","high","True","False",561,700,NA
"ADAL2H41ZBWAK","Sat Oct 03 2020 14:46:40 GMT-0400 (Eastern Daylight Time)","Sat Oct 03 2020 14:57:10 GMT-0400 (Eastern Daylight Time)","Mozilla/5.0 (Windows NT 6.1; Win64; x64) AppleWebKit/537.36 (KHTML, like Gecko) Chrome/85.0.4183.121 Safari/537.36",11,"[0.9, 0.5, 0.1]","[0.8, 0.4, 0.2]","[u'red', u'black', u'blue']","[u'left', u'middle', u'right']","[0.9, 0.5, 0.1]","[u'medium', u'high', u'low']","black",50,"middle","high","True","True",499,800,NA
"ADAL2H41ZBWAK","Sat Oct 03 2020 14:46:40 GMT-0400 (Eastern Daylight Time)","Sat Oct 03 2020 14:57:10 GMT-0400 (Eastern Daylight Time)","Mozilla/5.0 (Windows NT 6.1; Win64; x64) AppleWebKit/537.36 (KHTML, like Gecko) Chrome/85.0.4183.121 Safari/537.36",12,"[0.9, 0.5, 0.1]","[0.8, 0.4, 0.2]","[u'red', u'black', u'blue']","[u'left', u'middle', u'right']","[0.9, 0.5, 0.1]","[u'high', u'medium', u'low']","black",50,"middle","medium","False","False",482,750,NA
"ADAL2H41ZBWAK","Sat Oct 03 2020 14:46:40 GMT-0400 (Eastern Daylight Time)","Sat Oct 03 2020 14:57:10 GMT-0400 (Eastern Daylight Time)","Mozilla/5.0 (Windows NT 6.1; Win64; x64) AppleWebKit/537.36 (KHTML, like Gecko) Chrome/85.0.4183.121 Safari/537.36",13,"[0.9, 0.5, 0.1]","[0.8, 0.4, 0.2]","[u'red', u'black', u'blue']","[u'left', u'middle', u'right']","[0.9, 0.5, 0.1]","[u'high', u'medium', u'low']","blue",51,"right","low","False","False",610,700,NA
"ADAL2H41ZBWAK","Sat Oct 03 2020 14:46:40 GMT-0400 (Eastern Daylight Time)","Sat Oct 03 2020 14:57:10 GMT-0400 (Eastern Daylight Time)","Mozilla/5.0 (Windows NT 6.1; Win64; x64) AppleWebKit/537.36 (KHTML, like Gecko) Chrome/85.0.4183.121 Safari/537.36",14,"[0.9, 0.5, 0.1]","[0.8, 0.4, 0.2]","[u'red', u'black', u'blue']","[u'left', u'middle', u'right']","[0.9, 0.5, 0.1]","[u'high', u'medium', u'low']","red",49,"left","high","True","False",545,800,NA
"ADAL2H41ZBWAK","Sat Oct 03 2020 14:46:40 GMT-0400 (Eastern Daylight Time)","Sat Oct 03 2020 14:57:10 GMT-0400 (Eastern Daylight Time)","Mozilla/5.0 (Windows NT 6.1; Win64; x64) AppleWebKit/537.36 (KHTML, like Gecko) Chrome/85.0.4183.121 Safari/537.36",15,"[0.9, 0.5, 0.1]","[0.8, 0.4, 0.2]","[u'red', u'black', u'blue']","[u'left', u'middle', u'right']","[0.9, 0.5, 0.1]","[u'high', u'medium', u'low']","red",49,"left","high","True","False",482,900,NA
"ADAL2H41ZBWAK","Sat Oct 03 2020 14:46:40 GMT-0400 (Eastern Daylight Time)","Sat Oct 03 2020 14:57:10 GMT-0400 (Eastern Daylight Time)","Mozilla/5.0 (Windows NT 6.1; Win64; x64) AppleWebKit/537.36 (KHTML, like Gecko) Chrome/85.0.4183.121 Safari/537.36",16,"[0.9, 0.5, 0.1]","[0.8, 0.4, 0.2]","[u'red', u'black', u'blue']","[u'left', u'middle', u'right']","[0.9, 0.5, 0.1]","[u'high', u'medium', u'low']","red",49,"left","high","True","False",450,1000,NA
"ADAL2H41ZBWAK","Sat Oct 03 2020 14:46:40 GMT-0400 (Eastern Daylight Time)","Sat Oct 03 2020 14:57:10 GMT-0400 (Eastern Daylight Time)","Mozilla/5.0 (Windows NT 6.1; Win64; x64) AppleWebKit/537.36 (KHTML, like Gecko) Chrome/85.0.4183.121 Safari/537.36",17,"[0.9, 0.5, 0.1]","[0.8, 0.4, 0.2]","[u'red', u'black', u'blue']","[u'left', u'middle', u'right']","[0.9, 0.5, 0.1]","[u'high', u'medium', u'low']","red",49,"left","high","True","False",498,1100,NA
"ADAL2H41ZBWAK","Sat Oct 03 2020 14:46:40 GMT-0400 (Eastern Daylight Time)","Sat Oct 03 2020 14:57:10 GMT-0400 (Eastern Daylight Time)","Mozilla/5.0 (Windows NT 6.1; Win64; x64) AppleWebKit/537.36 (KHTML, like Gecko) Chrome/85.0.4183.121 Safari/537.36",18,"[0.9, 0.5, 0.1]","[0.8, 0.4, 0.2]","[u'red', u'black', u'blue']","[u'left', u'middle', u'right']","[0.9, 0.5, 0.1]","[u'high', u'medium', u'low']","red",49,"left","high","True","False",531,1200,NA
"ADAL2H41ZBWAK","Sat Oct 03 2020 14:46:40 GMT-0400 (Eastern Daylight Time)","Sat Oct 03 2020 14:57:10 GMT-0400 (Eastern Daylight Time)","Mozilla/5.0 (Windows NT 6.1; Win64; x64) AppleWebKit/537.36 (KHTML, like Gecko) Chrome/85.0.4183.121 Safari/537.36",19,"[0.9, 0.5, 0.1]","[0.8, 0.4, 0.2]","[u'red', u'black', u'blue']","[u'left', u'middle', u'right']","[0.9, 0.5, 0.1]","[u'high', u'medium', u'low']","red",49,"left","high","True","False",673,1300,NA
"ADAL2H41ZBWAK","Sat Oct 03 2020 14:46:40 GMT-0400 (Eastern Daylight Time)","Sat Oct 03 2020 14:57:10 GMT-0400 (Eastern Daylight Time)","Mozilla/5.0 (Windows NT 6.1; Win64; x64) AppleWebKit/537.36 (KHTML, like Gecko) Chrome/85.0.4183.121 Safari/537.36",20,"[0.9, 0.5, 0.1]","[0.8, 0.4, 0.2]","[u'red', u'black', u'blue']","[u'left', u'middle', u'right']","[0.9, 0.5, 0.1]","[u'high', u'medium', u'low']","red",49,"left","high","True","False",548,1400,NA
"ADAL2H41ZBWAK","Sat Oct 03 2020 14:46:40 GMT-0400 (Eastern Daylight Time)","Sat Oct 03 2020 14:57:10 GMT-0400 (Eastern Daylight Time)","Mozilla/5.0 (Windows NT 6.1; Win64; x64) AppleWebKit/537.36 (KHTML, like Gecko) Chrome/85.0.4183.121 Safari/537.36",21,"[0.9, 0.5, 0.1]","[0.8, 0.4, 0.2]","[u'red', u'black', u'blue']","[u'left', u'middle', u'right']","[0.9, 0.5, 0.1]","[u'high', u'medium', u'low']","red",49,"left","high","True","False",740,1500,NA
"ADAL2H41ZBWAK","Sat Oct 03 2020 14:46:40 GMT-0400 (Eastern Daylight Time)","Sat Oct 03 2020 14:57:10 GMT-0400 (Eastern Daylight Time)","Mozilla/5.0 (Windows NT 6.1; Win64; x64) AppleWebKit/537.36 (KHTML, like Gecko) Chrome/85.0.4183.121 Safari/537.36",22,"[0.9, 0.5, 0.1]","[0.8, 0.4, 0.2]","[u'red', u'black', u'blue']","[u'left', u'middle', u'right']","[0.9, 0.5, 0.1]","[u'high', u'medium', u'low']","red",49,"left","high","True","True",658,1600,NA
"ADAL2H41ZBWAK","Sat Oct 03 2020 14:46:40 GMT-0400 (Eastern Daylight Time)","Sat Oct 03 2020 14:57:10 GMT-0400 (Eastern Daylight Time)","Mozilla/5.0 (Windows NT 6.1; Win64; x64) AppleWebKit/537.36 (KHTML, like Gecko) Chrome/85.0.4183.121 Safari/537.36",23,"[0.9, 0.5, 0.1]","[0.8, 0.4, 0.2]","[u'red', u'black', u'blue']","[u'left', u'middle', u'right']","[0.9, 0.5, 0.1]","[u'low', u'medium', u'high']","red",49,"left","low","False","False",659,1550,NA
"ADAL2H41ZBWAK","Sat Oct 03 2020 14:46:40 GMT-0400 (Eastern Daylight Time)","Sat Oct 03 2020 14:57:10 GMT-0400 (Eastern Daylight Time)","Mozilla/5.0 (Windows NT 6.1; Win64; x64) AppleWebKit/537.36 (KHTML, like Gecko) Chrome/85.0.4183.121 Safari/537.36",24,"[0.9, 0.5, 0.1]","[0.8, 0.4, 0.2]","[u'red', u'black', u'blue']","[u'left', u'middle', u'right']","[0.9, 0.5, 0.1]","[u'low', u'medium', u'high']","blue",51,"right","high","True","False",1056,1650,NA
"ADAL2H41ZBWAK","Sat Oct 03 2020 14:46:40 GMT-0400 (Eastern Daylight Time)","Sat Oct 03 2020 14:57:10 GMT-0400 (Eastern Daylight Time)","Mozilla/5.0 (Windows NT 6.1; Win64; x64) AppleWebKit/537.36 (KHTML, like Gecko) Chrome/85.0.4183.121 Safari/537.36",25,"[0.9, 0.5, 0.1]","[0.8, 0.4, 0.2]","[u'red', u'black', u'blue']","[u'left', u'middle', u'right']","[0.9, 0.5, 0.1]","[u'low', u'medium', u'high']","blue",51,"right","high","True","False",372,1750,NA
"ADAL2H41ZBWAK","Sat Oct 03 2020 14:46:40 GMT-0400 (Eastern Daylight Time)","Sat Oct 03 2020 14:57:10 GMT-0400 (Eastern Daylight Time)","Mozilla/5.0 (Windows NT 6.1; Win64; x64) AppleWebKit/537.36 (KHTML, like Gecko) Chrome/85.0.4183.121 Safari/537.36",26,"[0.9, 0.5, 0.1]","[0.8, 0.4, 0.2]","[u'red', u'black', u'blue']","[u'left', u'middle', u'right']","[0.9, 0.5, 0.1]","[u'low', u'medium', u'high']","blue",51,"right","high","True","False",385,1850,NA
"ADAL2H41ZBWAK","Sat Oct 03 2020 14:46:40 GMT-0400 (Eastern Daylight Time)","Sat Oct 03 2020 14:57:10 GMT-0400 (Eastern Daylight Time)","Mozilla/5.0 (Windows NT 6.1; Win64; x64) AppleWebKit/537.36 (KHTML, like Gecko) Chrome/85.0.4183.121 Safari/537.36",27,"[0.9, 0.5, 0.1]","[0.8, 0.4, 0.2]","[u'red', u'black', u'blue']","[u'left', u'middle', u'right']","[0.9, 0.5, 0.1]","[u'low', u'medium', u'high']","blue",51,"right","high","True","False",499,1950,NA
"ADAL2H41ZBWAK","Sat Oct 03 2020 14:46:40 GMT-0400 (Eastern Daylight Time)","Sat Oct 03 2020 14:57:10 GMT-0400 (Eastern Daylight Time)","Mozilla/5.0 (Windows NT 6.1; Win64; x64) AppleWebKit/537.36 (KHTML, like Gecko) Chrome/85.0.4183.121 Safari/537.36",28,"[0.9, 0.5, 0.1]","[0.8, 0.4, 0.2]","[u'red', u'black', u'blue']","[u'left', u'middle', u'right']","[0.9, 0.5, 0.1]","[u'low', u'medium', u'high']","blue",51,"right","high","True","False",388,2050,NA
"ADAL2H41ZBWAK","Sat Oct 03 2020 14:46:40 GMT-0400 (Eastern Daylight Time)","Sat Oct 03 2020 14:57:10 GMT-0400 (Eastern Daylight Time)","Mozilla/5.0 (Windows NT 6.1; Win64; x64) AppleWebKit/537.36 (KHTML, like Gecko) Chrome/85.0.4183.121 Safari/537.36",29,"[0.9, 0.5, 0.1]","[0.8, 0.4, 0.2]","[u'red', u'black', u'blue']","[u'left', u'middle', u'right']","[0.9, 0.5, 0.1]","[u'low', u'medium', u'high']","blue",51,"right","high","True","False",499,2150,NA
"ADAL2H41ZBWAK","Sat Oct 03 2020 14:46:40 GMT-0400 (Eastern Daylight Time)","Sat Oct 03 2020 14:57:10 GMT-0400 (Eastern Daylight Time)","Mozilla/5.0 (Windows NT 6.1; Win64; x64) AppleWebKit/537.36 (KHTML, like Gecko) Chrome/85.0.4183.121 Safari/537.36",30,"[0.9, 0.5, 0.1]","[0.8, 0.4, 0.2]","[u'red', u'black', u'blue']","[u'left', u'middle', u'right']","[0.9, 0.5, 0.1]","[u'low', u'medium', u'high']","blue",51,"right","high","True","False",481,2250,NA
"ADAL2H41ZBWAK","Sat Oct 03 2020 14:46:40 GMT-0400 (Eastern Daylight Time)","Sat Oct 03 2020 14:57:10 GMT-0400 (Eastern Daylight Time)","Mozilla/5.0 (Windows NT 6.1; Win64; x64) AppleWebKit/537.36 (KHTML, like Gecko) Chrome/85.0.4183.121 Safari/537.36",31,"[0.9, 0.5, 0.1]","[0.8, 0.4, 0.2]","[u'red', u'black', u'blue']","[u'left', u'middle', u'right']","[0.9, 0.5, 0.1]","[u'low', u'medium', u'high']","blue",51,"right","high","True","False",354,2350,NA
"ADAL2H41ZBWAK","Sat Oct 03 2020 14:46:40 GMT-0400 (Eastern Daylight Time)","Sat Oct 03 2020 14:57:10 GMT-0400 (Eastern Daylight Time)","Mozilla/5.0 (Windows NT 6.1; Win64; x64) AppleWebKit/537.36 (KHTML, like Gecko) Chrome/85.0.4183.121 Safari/537.36",32,"[0.9, 0.5, 0.1]","[0.8, 0.4, 0.2]","[u'red', u'black', u'blue']","[u'left', u'middle', u'right']","[0.9, 0.5, 0.1]","[u'low', u'medium', u'high']","blue",51,"right","high","True","True",450,2450,NA
"ADAL2H41ZBWAK","Sat Oct 03 2020 14:46:40 GMT-0400 (Eastern Daylight Time)","Sat Oct 03 2020 14:57:10 GMT-0400 (Eastern Daylight Time)","Mozilla/5.0 (Windows NT 6.1; Win64; x64) AppleWebKit/537.36 (KHTML, like Gecko) Chrome/85.0.4183.121 Safari/537.36",33,"[0.9, 0.5, 0.1]","[0.8, 0.4, 0.2]","[u'red', u'black', u'blue']","[u'left', u'middle', u'right']","[0.9, 0.5, 0.1]","[u'high', u'low', u'medium']","blue",51,"right","medium","True","False",355,2550,NA
"ADAL2H41ZBWAK","Sat Oct 03 2020 14:46:40 GMT-0400 (Eastern Daylight Time)","Sat Oct 03 2020 14:57:10 GMT-0400 (Eastern Daylight Time)","Mozilla/5.0 (Windows NT 6.1; Win64; x64) AppleWebKit/537.36 (KHTML, like Gecko) Chrome/85.0.4183.121 Safari/537.36",34,"[0.9, 0.5, 0.1]","[0.8, 0.4, 0.2]","[u'red', u'black', u'blue']","[u'left', u'middle', u'right']","[0.9, 0.5, 0.1]","[u'high', u'low', u'medium']","blue",51,"right","medium","False","False",365,2500,NA
"ADAL2H41ZBWAK","Sat Oct 03 2020 14:46:40 GMT-0400 (Eastern Daylight Time)","Sat Oct 03 2020 14:57:10 GMT-0400 (Eastern Daylight Time)","Mozilla/5.0 (Windows NT 6.1; Win64; x64) AppleWebKit/537.36 (KHTML, like Gecko) Chrome/85.0.4183.121 Safari/537.36",35,"[0.9, 0.5, 0.1]","[0.8, 0.4, 0.2]","[u'red', u'black', u'blue']","[u'left', u'middle', u'right']","[0.9, 0.5, 0.1]","[u'high', u'low', u'medium']","black",50,"middle","low","False","False",1389,2450,NA
"ADAL2H41ZBWAK","Sat Oct 03 2020 14:46:40 GMT-0400 (Eastern Daylight Time)","Sat Oct 03 2020 14:57:10 GMT-0400 (Eastern Daylight Time)","Mozilla/5.0 (Windows NT 6.1; Win64; x64) AppleWebKit/537.36 (KHTML, like Gecko) Chrome/85.0.4183.121 Safari/537.36",36,"[0.9, 0.5, 0.1]","[0.8, 0.4, 0.2]","[u'red', u'black', u'blue']","[u'left', u'middle', u'right']","[0.9, 0.5, 0.1]","[u'high', u'low', u'medium']","red",49,"left","high","True","False",34,2550,NA
"ADAL2H41ZBWAK","Sat Oct 03 2020 14:46:40 GMT-0400 (Eastern Daylight Time)","Sat Oct 03 2020 14:57:10 GMT-0400 (Eastern Daylight Time)","Mozilla/5.0 (Windows NT 6.1; Win64; x64) AppleWebKit/537.36 (KHTML, like Gecko) Chrome/85.0.4183.121 Safari/537.36",37,"[0.9, 0.5, 0.1]","[0.8, 0.4, 0.2]","[u'red', u'black', u'blue']","[u'left', u'middle', u'right']","[0.9, 0.5, 0.1]","[u'high', u'low', u'medium']","red",49,"left","high","True","False",355,2650,NA
"ADAL2H41ZBWAK","Sat Oct 03 2020 14:46:40 GMT-0400 (Eastern Daylight Time)","Sat Oct 03 2020 14:57:10 GMT-0400 (Eastern Daylight Time)","Mozilla/5.0 (Windows NT 6.1; Win64; x64) AppleWebKit/537.36 (KHTML, like Gecko) Chrome/85.0.4183.121 Safari/537.36",38,"[0.9, 0.5, 0.1]","[0.8, 0.4, 0.2]","[u'red', u'black', u'blue']","[u'left', u'middle', u'right']","[0.9, 0.5, 0.1]","[u'high', u'low', u'medium']","red",49,"left","high","True","False",435,2750,NA
"ADAL2H41ZBWAK","Sat Oct 03 2020 14:46:40 GMT-0400 (Eastern Daylight Time)","Sat Oct 03 2020 14:57:10 GMT-0400 (Eastern Daylight Time)","Mozilla/5.0 (Windows NT 6.1; Win64; x64) AppleWebKit/537.36 (KHTML, like Gecko) Chrome/85.0.4183.121 Safari/537.36",39,"[0.9, 0.5, 0.1]","[0.8, 0.4, 0.2]","[u'red', u'black', u'blue']","[u'left', u'middle', u'right']","[0.9, 0.5, 0.1]","[u'high', u'low', u'medium']","red",49,"left","high","True","False",627,2850,NA
"ADAL2H41ZBWAK","Sat Oct 03 2020 14:46:40 GMT-0400 (Eastern Daylight Time)","Sat Oct 03 2020 14:57:10 GMT-0400 (Eastern Daylight Time)","Mozilla/5.0 (Windows NT 6.1; Win64; x64) AppleWebKit/537.36 (KHTML, like Gecko) Chrome/85.0.4183.121 Safari/537.36",40,"[0.9, 0.5, 0.1]","[0.8, 0.4, 0.2]","[u'red', u'black', u'blue']","[u'left', u'middle', u'right']","[0.9, 0.5, 0.1]","[u'high', u'low', u'medium']","red",49,"left","high","True","False",362,2950,NA
"ADAL2H41ZBWAK","Sat Oct 03 2020 14:46:40 GMT-0400 (Eastern Daylight Time)","Sat Oct 03 2020 14:57:10 GMT-0400 (Eastern Daylight Time)","Mozilla/5.0 (Windows NT 6.1; Win64; x64) AppleWebKit/537.36 (KHTML, like Gecko) Chrome/85.0.4183.121 Safari/537.36",41,"[0.9, 0.5, 0.1]","[0.8, 0.4, 0.2]","[u'red', u'black', u'blue']","[u'left', u'middle', u'right']","[0.9, 0.5, 0.1]","[u'low', u'high', u'medium']","red",49,"left","low","False","False",1547,2900,NA
"ADAL2H41ZBWAK","Sat Oct 03 2020 14:46:40 GMT-0400 (Eastern Daylight Time)","Sat Oct 03 2020 14:57:10 GMT-0400 (Eastern Daylight Time)","Mozilla/5.0 (Windows NT 6.1; Win64; x64) AppleWebKit/537.36 (KHTML, like Gecko) Chrome/85.0.4183.121 Safari/537.36",42,"[0.9, 0.5, 0.1]","[0.8, 0.4, 0.2]","[u'red', u'black', u'blue']","[u'left', u'middle', u'right']","[0.9, 0.5, 0.1]","[u'low', u'high', u'medium']","black",50,"middle","high","True","False",363,3000,NA
"ADAL2H41ZBWAK","Sat Oct 03 2020 14:46:40 GMT-0400 (Eastern Daylight Time)","Sat Oct 03 2020 14:57:10 GMT-0400 (Eastern Daylight Time)","Mozilla/5.0 (Windows NT 6.1; Win64; x64) AppleWebKit/537.36 (KHTML, like Gecko) Chrome/85.0.4183.121 Safari/537.36",43,"[0.9, 0.5, 0.1]","[0.8, 0.4, 0.2]","[u'red', u'black', u'blue']","[u'left', u'middle', u'right']","[0.9, 0.5, 0.1]","[u'low', u'high', u'medium']","black",50,"middle","high","True","False",427,3100,NA
"ADAL2H41ZBWAK","Sat Oct 03 2020 14:46:40 GMT-0400 (Eastern Daylight Time)","Sat Oct 03 2020 14:57:10 GMT-0400 (Eastern Daylight Time)","Mozilla/5.0 (Windows NT 6.1; Win64; x64) AppleWebKit/537.36 (KHTML, like Gecko) Chrome/85.0.4183.121 Safari/537.36",44,"[0.9, 0.5, 0.1]","[0.8, 0.4, 0.2]","[u'red', u'black', u'blue']","[u'left', u'middle', u'right']","[0.9, 0.5, 0.1]","[u'low', u'high', u'medium']","black",50,"middle","high","True","False",293,3200,NA
"ADAL2H41ZBWAK","Sat Oct 03 2020 14:46:40 GMT-0400 (Eastern Daylight Time)","Sat Oct 03 2020 14:57:10 GMT-0400 (Eastern Daylight Time)","Mozilla/5.0 (Windows NT 6.1; Win64; x64) AppleWebKit/537.36 (KHTML, like Gecko) Chrome/85.0.4183.121 Safari/537.36",45,"[0.9, 0.5, 0.1]","[0.8, 0.4, 0.2]","[u'red', u'black', u'blue']","[u'left', u'middle', u'right']","[0.9, 0.5, 0.1]","[u'low', u'high', u'medium']","black",50,"middle","high","True","False",363,3300,NA
"ADAL2H41ZBWAK","Sat Oct 03 2020 14:46:40 GMT-0400 (Eastern Daylight Time)","Sat Oct 03 2020 14:57:10 GMT-0400 (Eastern Daylight Time)","Mozilla/5.0 (Windows NT 6.1; Win64; x64) AppleWebKit/537.36 (KHTML, like Gecko) Chrome/85.0.4183.121 Safari/537.36",46,"[0.9, 0.5, 0.1]","[0.8, 0.4, 0.2]","[u'red', u'black', u'blue']","[u'left', u'middle', u'right']","[0.9, 0.5, 0.1]","[u'low', u'high', u'medium']","black",50,"middle","high","True","False",378,3400,NA
"ADAL2H41ZBWAK","Sat Oct 03 2020 14:46:40 GMT-0400 (Eastern Daylight Time)","Sat Oct 03 2020 14:57:10 GMT-0400 (Eastern Daylight Time)","Mozilla/5.0 (Windows NT 6.1; Win64; x64) AppleWebKit/537.36 (KHTML, like Gecko) Chrome/85.0.4183.121 Safari/537.36",47,"[0.9, 0.5, 0.1]","[0.8, 0.4, 0.2]","[u'red', u'black', u'blue']","[u'left', u'middle', u'right']","[0.9, 0.5, 0.1]","[u'low', u'high', u'medium']","black",50,"middle","high","True","False",360,3500,NA
"ADAL2H41ZBWAK","Sat Oct 03 2020 14:46:40 GMT-0400 (Eastern Daylight Time)","Sat Oct 03 2020 14:57:10 GMT-0400 (Eastern Daylight Time)","Mozilla/5.0 (Windows NT 6.1; Win64; x64) AppleWebKit/537.36 (KHTML, like Gecko) Chrome/85.0.4183.121 Safari/537.36",48,"[0.9, 0.5, 0.1]","[0.8, 0.4, 0.2]","[u'red', u'black', u'blue']","[u'left', u'middle', u'right']","[0.9, 0.5, 0.1]","[u'low', u'high', u'medium']","black",50,"middle","high","True","False",492,3600,NA
"ADAL2H41ZBWAK","Sat Oct 03 2020 14:46:40 GMT-0400 (Eastern Daylight Time)","Sat Oct 03 2020 14:57:10 GMT-0400 (Eastern Daylight Time)","Mozilla/5.0 (Windows NT 6.1; Win64; x64) AppleWebKit/537.36 (KHTML, like Gecko) Chrome/85.0.4183.121 Safari/537.36",49,"[0.9, 0.5, 0.1]","[0.8, 0.4, 0.2]","[u'red', u'black', u'blue']","[u'left', u'middle', u'right']","[0.9, 0.5, 0.1]","[u'low', u'high', u'medium']","black",50,"middle","high","True","False",370,3700,NA
"ADAL2H41ZBWAK","Sat Oct 03 2020 14:46:40 GMT-0400 (Eastern Daylight Time)","Sat Oct 03 2020 14:57:10 GMT-0400 (Eastern Daylight Time)","Mozilla/5.0 (Windows NT 6.1; Win64; x64) AppleWebKit/537.36 (KHTML, like Gecko) Chrome/85.0.4183.121 Safari/537.36",50,"[0.9, 0.5, 0.1]","[0.8, 0.4, 0.2]","[u'red', u'black', u'blue']","[u'left', u'middle', u'right']","[0.9, 0.5, 0.1]","[u'low', u'high', u'medium']","black",50,"middle","high","True","True",578,3800,NA
"ADAL2H41ZBWAK","Sat Oct 03 2020 14:46:40 GMT-0400 (Eastern Daylight Time)","Sat Oct 03 2020 14:57:10 GMT-0400 (Eastern Daylight Time)","Mozilla/5.0 (Windows NT 6.1; Win64; x64) AppleWebKit/537.36 (KHTML, like Gecko) Chrome/85.0.4183.121 Safari/537.36",51,"[0.9, 0.5, 0.1]","[0.8, 0.4, 0.2]","[u'red', u'black', u'blue']","[u'left', u'middle', u'right']","[0.9, 0.5, 0.1]","[u'medium', u'low', u'high']","black",50,"middle","low","False","False",499,3750,NA
"ADAL2H41ZBWAK","Sat Oct 03 2020 14:46:40 GMT-0400 (Eastern Daylight Time)","Sat Oct 03 2020 14:57:10 GMT-0400 (Eastern Daylight Time)","Mozilla/5.0 (Windows NT 6.1; Win64; x64) AppleWebKit/537.36 (KHTML, like Gecko) Chrome/85.0.4183.121 Safari/537.36",52,"[0.9, 0.5, 0.1]","[0.8, 0.4, 0.2]","[u'red', u'black', u'blue']","[u'left', u'middle', u'right']","[0.9, 0.5, 0.1]","[u'medium', u'low', u'high']","blue",51,"right","high","False","False",82,3700,NA
"ADAL2H41ZBWAK","Sat Oct 03 2020 14:46:40 GMT-0400 (Eastern Daylight Time)","Sat Oct 03 2020 14:57:10 GMT-0400 (Eastern Daylight Time)","Mozilla/5.0 (Windows NT 6.1; Win64; x64) AppleWebKit/537.36 (KHTML, like Gecko) Chrome/85.0.4183.121 Safari/537.36",53,"[0.9, 0.5, 0.1]","[0.8, 0.4, 0.2]","[u'red', u'black', u'blue']","[u'left', u'middle', u'right']","[0.9, 0.5, 0.1]","[u'medium', u'low', u'high']","red",49,"left","medium","True","False",187,3800,NA
"ADAL2H41ZBWAK","Sat Oct 03 2020 14:46:40 GMT-0400 (Eastern Daylight Time)","Sat Oct 03 2020 14:57:10 GMT-0400 (Eastern Daylight Time)","Mozilla/5.0 (Windows NT 6.1; Win64; x64) AppleWebKit/537.36 (KHTML, like Gecko) Chrome/85.0.4183.121 Safari/537.36",54,"[0.9, 0.5, 0.1]","[0.8, 0.4, 0.2]","[u'red', u'black', u'blue']","[u'left', u'middle', u'right']","[0.9, 0.5, 0.1]","[u'medium', u'low', u'high']","red",49,"left","medium","True","False",354,3900,NA
"ADAL2H41ZBWAK","Sat Oct 03 2020 14:46:40 GMT-0400 (Eastern Daylight Time)","Sat Oct 03 2020 14:57:10 GMT-0400 (Eastern Daylight Time)","Mozilla/5.0 (Windows NT 6.1; Win64; x64) AppleWebKit/537.36 (KHTML, like Gecko) Chrome/85.0.4183.121 Safari/537.36",55,"[0.9, 0.5, 0.1]","[0.8, 0.4, 0.2]","[u'red', u'black', u'blue']","[u'left', u'middle', u'right']","[0.9, 0.5, 0.1]","[u'medium', u'low', u'high']","red",49,"left","medium","False","False",413,3850,NA
"ADAL2H41ZBWAK","Sat Oct 03 2020 14:46:40 GMT-0400 (Eastern Daylight Time)","Sat Oct 03 2020 14:57:10 GMT-0400 (Eastern Daylight Time)","Mozilla/5.0 (Windows NT 6.1; Win64; x64) AppleWebKit/537.36 (KHTML, like Gecko) Chrome/85.0.4183.121 Safari/537.36",56,"[0.9, 0.5, 0.1]","[0.8, 0.4, 0.2]","[u'red', u'black', u'blue']","[u'left', u'middle', u'right']","[0.9, 0.5, 0.1]","[u'medium', u'low', u'high']","black",50,"middle","low","True","False",363,3950,NA
"ADAL2H41ZBWAK","Sat Oct 03 2020 14:46:40 GMT-0400 (Eastern Daylight Time)","Sat Oct 03 2020 14:57:10 GMT-0400 (Eastern Daylight Time)","Mozilla/5.0 (Windows NT 6.1; Win64; x64) AppleWebKit/537.36 (KHTML, like Gecko) Chrome/85.0.4183.121 Safari/537.36",57,"[0.9, 0.5, 0.1]","[0.8, 0.4, 0.2]","[u'red', u'black', u'blue']","[u'left', u'middle', u'right']","[0.9, 0.5, 0.1]","[u'medium', u'low', u'high']","black",50,"middle","low","True","False",356,4050,NA
"ADAL2H41ZBWAK","Sat Oct 03 2020 14:46:40 GMT-0400 (Eastern Daylight Time)","Sat Oct 03 2020 14:57:10 GMT-0400 (Eastern Daylight Time)","Mozilla/5.0 (Windows NT 6.1; Win64; x64) AppleWebKit/537.36 (KHTML, like Gecko) Chrome/85.0.4183.121 Safari/537.36",58,"[0.9, 0.5, 0.1]","[0.8, 0.4, 0.2]","[u'red', u'black', u'blue']","[u'left', u'middle', u'right']","[0.9, 0.5, 0.1]","[u'medium', u'low', u'high']","black",50,"middle","low","False","False",365,4000,NA
"ADAL2H41ZBWAK","Sat Oct 03 2020 14:46:40 GMT-0400 (Eastern Daylight Time)","Sat Oct 03 2020 14:57:10 GMT-0400 (Eastern Daylight Time)","Mozilla/5.0 (Windows NT 6.1; Win64; x64) AppleWebKit/537.36 (KHTML, like Gecko) Chrome/85.0.4183.121 Safari/537.36",59,"[0.9, 0.5, 0.1]","[0.8, 0.4, 0.2]","[u'red', u'black', u'blue']","[u'left', u'middle', u'right']","[0.9, 0.5, 0.1]","[u'medium', u'low', u'high']","blue",51,"right","high","False","False",373,3950,NA
"ADAL2H41ZBWAK","Sat Oct 03 2020 14:46:40 GMT-0400 (Eastern Daylight Time)","Sat Oct 03 2020 14:57:10 GMT-0400 (Eastern Daylight Time)","Mozilla/5.0 (Windows NT 6.1; Win64; x64) AppleWebKit/537.36 (KHTML, like Gecko) Chrome/85.0.4183.121 Safari/537.36",60,"[0.9, 0.5, 0.1]","[0.8, 0.4, 0.2]","[u'red', u'black', u'blue']","[u'left', u'middle', u'right']","[0.9, 0.5, 0.1]","[u'medium', u'low', u'high']","red",49,"left","medium","False","False",353,3900,NA
"ADAL2H41ZBWAK","Sat Oct 03 2020 14:46:40 GMT-0400 (Eastern Daylight Time)","Sat Oct 03 2020 14:57:10 GMT-0400 (Eastern Daylight Time)","Mozilla/5.0 (Windows NT 6.1; Win64; x64) AppleWebKit/537.36 (KHTML, like Gecko) Chrome/85.0.4183.121 Safari/537.36",61,"[0.9, 0.5, 0.1]","[0.8, 0.4, 0.2]","[u'red', u'black', u'blue']","[u'left', u'middle', u'right']","[0.9, 0.5, 0.1]","[u'medium', u'low', u'high']","black",50,"middle","low","False","False",355,3850,NA
"ADAL2H41ZBWAK","Sat Oct 03 2020 14:46:40 GMT-0400 (Eastern Daylight Time)","Sat Oct 03 2020 14:57:10 GMT-0400 (Eastern Daylight Time)","Mozilla/5.0 (Windows NT 6.1; Win64; x64) AppleWebKit/537.36 (KHTML, like Gecko) Chrome/85.0.4183.121 Safari/537.36",62,"[0.9, 0.5, 0.1]","[0.8, 0.4, 0.2]","[u'red', u'black', u'blue']","[u'left', u'middle', u'right']","[0.9, 0.5, 0.1]","[u'medium', u'low', u'high']","blue",51,"right","high","True","False",355,3950,NA
"ADAL2H41ZBWAK","Sat Oct 03 2020 14:46:40 GMT-0400 (Eastern Daylight Time)","Sat Oct 03 2020 14:57:10 GMT-0400 (Eastern Daylight Time)","Mozilla/5.0 (Windows NT 6.1; Win64; x64) AppleWebKit/537.36 (KHTML, like Gecko) Chrome/85.0.4183.121 Safari/537.36",63,"[0.9, 0.5, 0.1]","[0.8, 0.4, 0.2]","[u'red', u'black', u'blue']","[u'left', u'middle', u'right']","[0.9, 0.5, 0.1]","[u'medium', u'low', u'high']","blue",51,"right","high","True","False",409,4050,NA
"ADAL2H41ZBWAK","Sat Oct 03 2020 14:46:40 GMT-0400 (Eastern Daylight Time)","Sat Oct 03 2020 14:57:10 GMT-0400 (Eastern Daylight Time)","Mozilla/5.0 (Windows NT 6.1; Win64; x64) AppleWebKit/537.36 (KHTML, like Gecko) Chrome/85.0.4183.121 Safari/537.36",64,"[0.9, 0.5, 0.1]","[0.8, 0.4, 0.2]","[u'red', u'black', u'blue']","[u'left', u'middle', u'right']","[0.9, 0.5, 0.1]","[u'medium', u'low', u'high']","blue",51,"right","high","True","False",364,4150,NA
"ADAL2H41ZBWAK","Sat Oct 03 2020 14:46:40 GMT-0400 (Eastern Daylight Time)","Sat Oct 03 2020 14:57:10 GMT-0400 (Eastern Daylight Time)","Mozilla/5.0 (Windows NT 6.1; Win64; x64) AppleWebKit/537.36 (KHTML, like Gecko) Chrome/85.0.4183.121 Safari/537.36",65,"[0.9, 0.5, 0.1]","[0.8, 0.4, 0.2]","[u'red', u'black', u'blue']","[u'left', u'middle', u'right']","[0.9, 0.5, 0.1]","[u'medium', u'low', u'high']","blue",51,"right","high","True","False",519,4250,NA
"ADAL2H41ZBWAK","Sat Oct 03 2020 14:46:40 GMT-0400 (Eastern Daylight Time)","Sat Oct 03 2020 14:57:10 GMT-0400 (Eastern Daylight Time)","Mozilla/5.0 (Windows NT 6.1; Win64; x64) AppleWebKit/537.36 (KHTML, like Gecko) Chrome/85.0.4183.121 Safari/537.36",66,"[0.9, 0.5, 0.1]","[0.8, 0.4, 0.2]","[u'red', u'black', u'blue']","[u'left', u'middle', u'right']","[0.9, 0.5, 0.1]","[u'medium', u'low', u'high']","blue",51,"right","high","True","False",368,4350,NA
"ADAL2H41ZBWAK","Sat Oct 03 2020 14:46:40 GMT-0400 (Eastern Daylight Time)","Sat Oct 03 2020 14:57:10 GMT-0400 (Eastern Daylight Time)","Mozilla/5.0 (Windows NT 6.1; Win64; x64) AppleWebKit/537.36 (KHTML, like Gecko) Chrome/85.0.4183.121 Safari/537.36",67,"[0.9, 0.5, 0.1]","[0.8, 0.4, 0.2]","[u'red', u'black', u'blue']","[u'left', u'middle', u'right']","[0.9, 0.5, 0.1]","[u'medium', u'low', u'high']","blue",51,"right","high","True","False",363,4450,NA
"ADAL2H41ZBWAK","Sat Oct 03 2020 14:46:40 GMT-0400 (Eastern Daylight Time)","Sat Oct 03 2020 14:57:10 GMT-0400 (Eastern Daylight Time)","Mozilla/5.0 (Windows NT 6.1; Win64; x64) AppleWebKit/537.36 (KHTML, like Gecko) Chrome/85.0.4183.121 Safari/537.36",68,"[0.9, 0.5, 0.1]","[0.8, 0.4, 0.2]","[u'red', u'black', u'blue']","[u'left', u'middle', u'right']","[0.9, 0.5, 0.1]","[u'medium', u'low', u'high']","blue",51,"right","high","True","False",353,4550,NA
"ADAL2H41ZBWAK","Sat Oct 03 2020 14:46:40 GMT-0400 (Eastern Daylight Time)","Sat Oct 03 2020 14:57:10 GMT-0400 (Eastern Daylight Time)","Mozilla/5.0 (Windows NT 6.1; Win64; x64) AppleWebKit/537.36 (KHTML, like Gecko) Chrome/85.0.4183.121 Safari/537.36",69,"[0.9, 0.5, 0.1]","[0.8, 0.4, 0.2]","[u'red', u'black', u'blue']","[u'left', u'middle', u'right']","[0.9, 0.5, 0.1]","[u'medium', u'low', u'high']","blue",51,"right","high","True","False",355,4650,NA
"ADAL2H41ZBWAK","Sat Oct 03 2020 14:46:40 GMT-0400 (Eastern Daylight Time)","Sat Oct 03 2020 14:57:10 GMT-0400 (Eastern Daylight Time)","Mozilla/5.0 (Windows NT 6.1; Win64; x64) AppleWebKit/537.36 (KHTML, like Gecko) Chrome/85.0.4183.121 Safari/537.36",70,"[0.9, 0.5, 0.1]","[0.8, 0.4, 0.2]","[u'red', u'black', u'blue']","[u'left', u'middle', u'right']","[0.9, 0.5, 0.1]","[u'medium', u'low', u'high']","blue",51,"right","high","True","True",350,4750,NA
"ADAL2H41ZBWAK","Sat Oct 03 2020 14:46:40 GMT-0400 (Eastern Daylight Time)","Sat Oct 03 2020 14:57:10 GMT-0400 (Eastern Daylight Time)","Mozilla/5.0 (Windows NT 6.1; Win64; x64) AppleWebKit/537.36 (KHTML, like Gecko) Chrome/85.0.4183.121 Safari/537.36",71,"[0.9, 0.5, 0.1]","[0.8, 0.4, 0.2]","[u'red', u'black', u'blue']","[u'left', u'middle', u'right']","[0.9, 0.5, 0.1]","[u'high', u'medium', u'low']","blue",51,"right","low","False","False",356,4700,NA
"ADAL2H41ZBWAK","Sat Oct 03 2020 14:46:40 GMT-0400 (Eastern Daylight Time)","Sat Oct 03 2020 14:57:10 GMT-0400 (Eastern Daylight Time)","Mozilla/5.0 (Windows NT 6.1; Win64; x64) AppleWebKit/537.36 (KHTML, like Gecko) Chrome/85.0.4183.121 Safari/537.36",72,"[0.9, 0.5, 0.1]","[0.8, 0.4, 0.2]","[u'red', u'black', u'blue']","[u'left', u'middle', u'right']","[0.9, 0.5, 0.1]","[u'high', u'medium', u'low']","blue",51,"right","low","False","False",443,4650,NA
"ADAL2H41ZBWAK","Sat Oct 03 2020 14:46:40 GMT-0400 (Eastern Daylight Time)","Sat Oct 03 2020 14:57:10 GMT-0400 (Eastern Daylight Time)","Mozilla/5.0 (Windows NT 6.1; Win64; x64) AppleWebKit/537.36 (KHTML, like Gecko) Chrome/85.0.4183.121 Safari/537.36",73,"[0.9, 0.5, 0.1]","[0.8, 0.4, 0.2]","[u'red', u'black', u'blue']","[u'left', u'middle', u'right']","[0.9, 0.5, 0.1]","[u'high', u'medium', u'low']","black",50,"middle","medium","True","False",360,4750,NA
"ADAL2H41ZBWAK","Sat Oct 03 2020 14:46:40 GMT-0400 (Eastern Daylight Time)","Sat Oct 03 2020 14:57:10 GMT-0400 (Eastern Daylight Time)","Mozilla/5.0 (Windows NT 6.1; Win64; x64) AppleWebKit/537.36 (KHTML, like Gecko) Chrome/85.0.4183.121 Safari/537.36",74,"[0.9, 0.5, 0.1]","[0.8, 0.4, 0.2]","[u'red', u'black', u'blue']","[u'left', u'middle', u'right']","[0.9, 0.5, 0.1]","[u'high', u'medium', u'low']","black",50,"middle","medium","False","False",493,4700,NA
"ADAL2H41ZBWAK","Sat Oct 03 2020 14:46:40 GMT-0400 (Eastern Daylight Time)","Sat Oct 03 2020 14:57:10 GMT-0400 (Eastern Daylight Time)","Mozilla/5.0 (Windows NT 6.1; Win64; x64) AppleWebKit/537.36 (KHTML, like Gecko) Chrome/85.0.4183.121 Safari/537.36",75,"[0.9, 0.5, 0.1]","[0.8, 0.4, 0.2]","[u'red', u'black', u'blue']","[u'left', u'middle', u'right']","[0.9, 0.5, 0.1]","[u'high', u'medium', u'low']","red",49,"left","high","True","False",722,4800,NA
"ADAL2H41ZBWAK","Sat Oct 03 2020 14:46:40 GMT-0400 (Eastern Daylight Time)","Sat Oct 03 2020 14:57:10 GMT-0400 (Eastern Daylight Time)","Mozilla/5.0 (Windows NT 6.1; Win64; x64) AppleWebKit/537.36 (KHTML, like Gecko) Chrome/85.0.4183.121 Safari/537.36",76,"[0.9, 0.5, 0.1]","[0.8, 0.4, 0.2]","[u'red', u'black', u'blue']","[u'left', u'middle', u'right']","[0.9, 0.5, 0.1]","[u'high', u'medium', u'low']","red",49,"left","high","True","False",361,4900,NA
"ADAL2H41ZBWAK","Sat Oct 03 2020 14:46:40 GMT-0400 (Eastern Daylight Time)","Sat Oct 03 2020 14:57:10 GMT-0400 (Eastern Daylight Time)","Mozilla/5.0 (Windows NT 6.1; Win64; x64) AppleWebKit/537.36 (KHTML, like Gecko) Chrome/85.0.4183.121 Safari/537.36",77,"[0.9, 0.5, 0.1]","[0.8, 0.4, 0.2]","[u'red', u'black', u'blue']","[u'left', u'middle', u'right']","[0.9, 0.5, 0.1]","[u'high', u'medium', u'low']","red",49,"left","high","True","False",350,5000,NA
"ADAL2H41ZBWAK","Sat Oct 03 2020 14:46:40 GMT-0400 (Eastern Daylight Time)","Sat Oct 03 2020 14:57:10 GMT-0400 (Eastern Daylight Time)","Mozilla/5.0 (Windows NT 6.1; Win64; x64) AppleWebKit/537.36 (KHTML, like Gecko) Chrome/85.0.4183.121 Safari/537.36",78,"[0.9, 0.5, 0.1]","[0.8, 0.4, 0.2]","[u'red', u'black', u'blue']","[u'left', u'middle', u'right']","[0.9, 0.5, 0.1]","[u'high', u'medium', u'low']","red",49,"left","high","True","False",439,5100,NA
"ADAL2H41ZBWAK","Sat Oct 03 2020 14:46:40 GMT-0400 (Eastern Daylight Time)","Sat Oct 03 2020 14:57:10 GMT-0400 (Eastern Daylight Time)","Mozilla/5.0 (Windows NT 6.1; Win64; x64) AppleWebKit/537.36 (KHTML, like Gecko) Chrome/85.0.4183.121 Safari/537.36",79,"[0.9, 0.5, 0.1]","[0.8, 0.4, 0.2]","[u'red', u'black', u'blue']","[u'left', u'middle', u'right']","[0.9, 0.5, 0.1]","[u'high', u'medium', u'low']","red",49,"left","high","True","False",562,5200,NA
"ADAL2H41ZBWAK","Sat Oct 03 2020 14:46:40 GMT-0400 (Eastern Daylight Time)","Sat Oct 03 2020 14:57:10 GMT-0400 (Eastern Daylight Time)","Mozilla/5.0 (Windows NT 6.1; Win64; x64) AppleWebKit/537.36 (KHTML, like Gecko) Chrome/85.0.4183.121 Safari/537.36",80,"[0.9, 0.5, 0.1]","[0.8, 0.4, 0.2]","[u'red', u'black', u'blue']","[u'left', u'middle', u'right']","[0.9, 0.5, 0.1]","[u'high', u'medium', u'low']","red",49,"left","high","True","False",401,5300,NA
"ADAL2H41ZBWAK","Sat Oct 03 2020 14:46:40 GMT-0400 (Eastern Daylight Time)","Sat Oct 03 2020 14:57:10 GMT-0400 (Eastern Daylight Time)","Mozilla/5.0 (Windows NT 6.1; Win64; x64) AppleWebKit/537.36 (KHTML, like Gecko) Chrome/85.0.4183.121 Safari/537.36",81,"[0.9, 0.5, 0.1]","[0.8, 0.4, 0.2]","[u'red', u'black', u'blue']","[u'left', u'middle', u'right']","[0.8, 0.4, 0.2]","[u'low', u'medium', u'high']","red",49,"left","low","False","False",810,5250,NA
"ADAL2H41ZBWAK","Sat Oct 03 2020 14:46:40 GMT-0400 (Eastern Daylight Time)","Sat Oct 03 2020 14:57:10 GMT-0400 (Eastern Daylight Time)","Mozilla/5.0 (Windows NT 6.1; Win64; x64) AppleWebKit/537.36 (KHTML, like Gecko) Chrome/85.0.4183.121 Safari/537.36",82,"[0.9, 0.5, 0.1]","[0.8, 0.4, 0.2]","[u'red', u'black', u'blue']","[u'left', u'middle', u'right']","[0.8, 0.4, 0.2]","[u'low', u'medium', u'high']","black",50,"middle","medium","False","False",434,5200,NA
"ADAL2H41ZBWAK","Sat Oct 03 2020 14:46:40 GMT-0400 (Eastern Daylight Time)","Sat Oct 03 2020 14:57:10 GMT-0400 (Eastern Daylight Time)","Mozilla/5.0 (Windows NT 6.1; Win64; x64) AppleWebKit/537.36 (KHTML, like Gecko) Chrome/85.0.4183.121 Safari/537.36",83,"[0.9, 0.5, 0.1]","[0.8, 0.4, 0.2]","[u'red', u'black', u'blue']","[u'left', u'middle', u'right']","[0.8, 0.4, 0.2]","[u'low', u'medium', u'high']","blue",51,"right","high","True","False",260,5300,NA
"ADAL2H41ZBWAK","Sat Oct 03 2020 14:46:40 GMT-0400 (Eastern Daylight Time)","Sat Oct 03 2020 14:57:10 GMT-0400 (Eastern Daylight Time)","Mozilla/5.0 (Windows NT 6.1; Win64; x64) AppleWebKit/537.36 (KHTML, like Gecko) Chrome/85.0.4183.121 Safari/537.36",84,"[0.9, 0.5, 0.1]","[0.8, 0.4, 0.2]","[u'red', u'black', u'blue']","[u'left', u'middle', u'right']","[0.8, 0.4, 0.2]","[u'low', u'medium', u'high']","blue",51,"right","high","False","False",367,5250,NA
"ADAL2H41ZBWAK","Sat Oct 03 2020 14:46:40 GMT-0400 (Eastern Daylight Time)","Sat Oct 03 2020 14:57:10 GMT-0400 (Eastern Daylight Time)","Mozilla/5.0 (Windows NT 6.1; Win64; x64) AppleWebKit/537.36 (KHTML, like Gecko) Chrome/85.0.4183.121 Safari/537.36",85,"[0.9, 0.5, 0.1]","[0.8, 0.4, 0.2]","[u'red', u'black', u'blue']","[u'left', u'middle', u'right']","[0.8, 0.4, 0.2]","[u'low', u'medium', u'high']","black",50,"middle","medium","True","False",370,5350,NA
"ADAL2H41ZBWAK","Sat Oct 03 2020 14:46:40 GMT-0400 (Eastern Daylight Time)","Sat Oct 03 2020 14:57:10 GMT-0400 (Eastern Daylight Time)","Mozilla/5.0 (Windows NT 6.1; Win64; x64) AppleWebKit/537.36 (KHTML, like Gecko) Chrome/85.0.4183.121 Safari/537.36",86,"[0.9, 0.5, 0.1]","[0.8, 0.4, 0.2]","[u'red', u'black', u'blue']","[u'left', u'middle', u'right']","[0.8, 0.4, 0.2]","[u'low', u'medium', u'high']","black",50,"middle","medium","True","False",353,5450,NA
"ADAL2H41ZBWAK","Sat Oct 03 2020 14:46:40 GMT-0400 (Eastern Daylight Time)","Sat Oct 03 2020 14:57:10 GMT-0400 (Eastern Daylight Time)","Mozilla/5.0 (Windows NT 6.1; Win64; x64) AppleWebKit/537.36 (KHTML, like Gecko) Chrome/85.0.4183.121 Safari/537.36",87,"[0.9, 0.5, 0.1]","[0.8, 0.4, 0.2]","[u'red', u'black', u'blue']","[u'left', u'middle', u'right']","[0.8, 0.4, 0.2]","[u'low', u'medium', u'high']","black",50,"middle","medium","False","False",346,5400,NA
"ADAL2H41ZBWAK","Sat Oct 03 2020 14:46:40 GMT-0400 (Eastern Daylight Time)","Sat Oct 03 2020 14:57:10 GMT-0400 (Eastern Daylight Time)","Mozilla/5.0 (Windows NT 6.1; Win64; x64) AppleWebKit/537.36 (KHTML, like Gecko) Chrome/85.0.4183.121 Safari/537.36",88,"[0.9, 0.5, 0.1]","[0.8, 0.4, 0.2]","[u'red', u'black', u'blue']","[u'left', u'middle', u'right']","[0.8, 0.4, 0.2]","[u'low', u'medium', u'high']","red",49,"left","low","False","False",580,5350,NA
"ADAL2H41ZBWAK","Sat Oct 03 2020 14:46:40 GMT-0400 (Eastern Daylight Time)","Sat Oct 03 2020 14:57:10 GMT-0400 (Eastern Daylight Time)","Mozilla/5.0 (Windows NT 6.1; Win64; x64) AppleWebKit/537.36 (KHTML, like Gecko) Chrome/85.0.4183.121 Safari/537.36",89,"[0.9, 0.5, 0.1]","[0.8, 0.4, 0.2]","[u'red', u'black', u'blue']","[u'left', u'middle', u'right']","[0.8, 0.4, 0.2]","[u'low', u'medium', u'high']","blue",51,"right","high","True","False",358,5450,NA
"ADAL2H41ZBWAK","Sat Oct 03 2020 14:46:40 GMT-0400 (Eastern Daylight Time)","Sat Oct 03 2020 14:57:10 GMT-0400 (Eastern Daylight Time)","Mozilla/5.0 (Windows NT 6.1; Win64; x64) AppleWebKit/537.36 (KHTML, like Gecko) Chrome/85.0.4183.121 Safari/537.36",90,"[0.9, 0.5, 0.1]","[0.8, 0.4, 0.2]","[u'red', u'black', u'blue']","[u'left', u'middle', u'right']","[0.8, 0.4, 0.2]","[u'low', u'medium', u'high']","blue",51,"right","high","True","False",346,5550,NA
"ADAL2H41ZBWAK","Sat Oct 03 2020 14:46:40 GMT-0400 (Eastern Daylight Time)","Sat Oct 03 2020 14:57:10 GMT-0400 (Eastern Daylight Time)","Mozilla/5.0 (Windows NT 6.1; Win64; x64) AppleWebKit/537.36 (KHTML, like Gecko) Chrome/85.0.4183.121 Safari/537.36",91,"[0.9, 0.5, 0.1]","[0.8, 0.4, 0.2]","[u'red', u'black', u'blue']","[u'left', u'middle', u'right']","[0.8, 0.4, 0.2]","[u'low', u'medium', u'high']","blue",51,"right","high","True","False",346,5650,NA
"ADAL2H41ZBWAK","Sat Oct 03 2020 14:46:40 GMT-0400 (Eastern Daylight Time)","Sat Oct 03 2020 14:57:10 GMT-0400 (Eastern Daylight Time)","Mozilla/5.0 (Windows NT 6.1; Win64; x64) AppleWebKit/537.36 (KHTML, like Gecko) Chrome/85.0.4183.121 Safari/537.36",92,"[0.9, 0.5, 0.1]","[0.8, 0.4, 0.2]","[u'red', u'black', u'blue']","[u'left', u'middle', u'right']","[0.8, 0.4, 0.2]","[u'low', u'medium', u'high']","blue",51,"right","high","True","False",359,5750,NA
"ADAL2H41ZBWAK","Sat Oct 03 2020 14:46:40 GMT-0400 (Eastern Daylight Time)","Sat Oct 03 2020 14:57:10 GMT-0400 (Eastern Daylight Time)","Mozilla/5.0 (Windows NT 6.1; Win64; x64) AppleWebKit/537.36 (KHTML, like Gecko) Chrome/85.0.4183.121 Safari/537.36",93,"[0.9, 0.5, 0.1]","[0.8, 0.4, 0.2]","[u'red', u'black', u'blue']","[u'left', u'middle', u'right']","[0.8, 0.4, 0.2]","[u'low', u'medium', u'high']","blue",51,"right","high","True","False",354,5850,NA
"ADAL2H41ZBWAK","Sat Oct 03 2020 14:46:40 GMT-0400 (Eastern Daylight Time)","Sat Oct 03 2020 14:57:10 GMT-0400 (Eastern Daylight Time)","Mozilla/5.0 (Windows NT 6.1; Win64; x64) AppleWebKit/537.36 (KHTML, like Gecko) Chrome/85.0.4183.121 Safari/537.36",94,"[0.9, 0.5, 0.1]","[0.8, 0.4, 0.2]","[u'red', u'black', u'blue']","[u'left', u'middle', u'right']","[0.8, 0.4, 0.2]","[u'low', u'medium', u'high']","blue",51,"right","high","True","False",358,5950,NA
"ADAL2H41ZBWAK","Sat Oct 03 2020 14:46:40 GMT-0400 (Eastern Daylight Time)","Sat Oct 03 2020 14:57:10 GMT-0400 (Eastern Daylight Time)","Mozilla/5.0 (Windows NT 6.1; Win64; x64) AppleWebKit/537.36 (KHTML, like Gecko) Chrome/85.0.4183.121 Safari/537.36",95,"[0.9, 0.5, 0.1]","[0.8, 0.4, 0.2]","[u'red', u'black', u'blue']","[u'left', u'middle', u'right']","[0.8, 0.4, 0.2]","[u'low', u'medium', u'high']","blue",51,"right","high","False","False",364,5900,NA
"ADAL2H41ZBWAK","Sat Oct 03 2020 14:46:40 GMT-0400 (Eastern Daylight Time)","Sat Oct 03 2020 14:57:10 GMT-0400 (Eastern Daylight Time)","Mozilla/5.0 (Windows NT 6.1; Win64; x64) AppleWebKit/537.36 (KHTML, like Gecko) Chrome/85.0.4183.121 Safari/537.36",96,"[0.9, 0.5, 0.1]","[0.8, 0.4, 0.2]","[u'red', u'black', u'blue']","[u'left', u'middle', u'right']","[0.8, 0.4, 0.2]","[u'low', u'medium', u'high']","black",50,"middle","medium","False","False",42,5850,NA
"ADAL2H41ZBWAK","Sat Oct 03 2020 14:46:40 GMT-0400 (Eastern Daylight Time)","Sat Oct 03 2020 14:57:10 GMT-0400 (Eastern Daylight Time)","Mozilla/5.0 (Windows NT 6.1; Win64; x64) AppleWebKit/537.36 (KHTML, like Gecko) Chrome/85.0.4183.121 Safari/537.36",97,"[0.9, 0.5, 0.1]","[0.8, 0.4, 0.2]","[u'red', u'black', u'blue']","[u'left', u'middle', u'right']","[0.8, 0.4, 0.2]","[u'low', u'medium', u'high']","red",49,"left","low","False","False",931,5800,NA
"ADAL2H41ZBWAK","Sat Oct 03 2020 14:46:40 GMT-0400 (Eastern Daylight Time)","Sat Oct 03 2020 14:57:10 GMT-0400 (Eastern Daylight Time)","Mozilla/5.0 (Windows NT 6.1; Win64; x64) AppleWebKit/537.36 (KHTML, like Gecko) Chrome/85.0.4183.121 Safari/537.36",98,"[0.9, 0.5, 0.1]","[0.8, 0.4, 0.2]","[u'red', u'black', u'blue']","[u'left', u'middle', u'right']","[0.8, 0.4, 0.2]","[u'low', u'medium', u'high']","black",50,"middle","medium","False","False",449,5750,NA
"ADAL2H41ZBWAK","Sat Oct 03 2020 14:46:40 GMT-0400 (Eastern Daylight Time)","Sat Oct 03 2020 14:57:10 GMT-0400 (Eastern Daylight Time)","Mozilla/5.0 (Windows NT 6.1; Win64; x64) AppleWebKit/537.36 (KHTML, like Gecko) Chrome/85.0.4183.121 Safari/537.36",99,"[0.9, 0.5, 0.1]","[0.8, 0.4, 0.2]","[u'red', u'black', u'blue']","[u'left', u'middle', u'right']","[0.8, 0.4, 0.2]","[u'low', u'medium', u'high']","blue",51,"right","high","False","False",339,5700,NA
"ADAL2H41ZBWAK","Sat Oct 03 2020 14:46:40 GMT-0400 (Eastern Daylight Time)","Sat Oct 03 2020 14:57:10 GMT-0400 (Eastern Daylight Time)","Mozilla/5.0 (Windows NT 6.1; Win64; x64) AppleWebKit/537.36 (KHTML, like Gecko) Chrome/85.0.4183.121 Safari/537.36",100,"[0.9, 0.5, 0.1]","[0.8, 0.4, 0.2]","[u'red', u'black', u'blue']","[u'left', u'middle', u'right']","[0.8, 0.4, 0.2]","[u'low', u'medium', u'high']","black",50,"middle","medium","False","False",376,5650,NA
"ADAL2H41ZBWAK","Sat Oct 03 2020 14:46:40 GMT-0400 (Eastern Daylight Time)","Sat Oct 03 2020 14:57:10 GMT-0400 (Eastern Daylight Time)","Mozilla/5.0 (Windows NT 6.1; Win64; x64) AppleWebKit/537.36 (KHTML, like Gecko) Chrome/85.0.4183.121 Safari/537.36",101,"[0.9, 0.5, 0.1]","[0.8, 0.4, 0.2]","[u'red', u'black', u'blue']","[u'left', u'middle', u'right']","[0.8, 0.4, 0.2]","[u'low', u'medium', u'high']","red",49,"left","low","True","False",152,5750,NA
"ADAL2H41ZBWAK","Sat Oct 03 2020 14:46:40 GMT-0400 (Eastern Daylight Time)","Sat Oct 03 2020 14:57:10 GMT-0400 (Eastern Daylight Time)","Mozilla/5.0 (Windows NT 6.1; Win64; x64) AppleWebKit/537.36 (KHTML, like Gecko) Chrome/85.0.4183.121 Safari/537.36",102,"[0.9, 0.5, 0.1]","[0.8, 0.4, 0.2]","[u'red', u'black', u'blue']","[u'left', u'middle', u'right']","[0.8, 0.4, 0.2]","[u'low', u'medium', u'high']","red",49,"left","low","False","False",260,5700,NA
"ADAL2H41ZBWAK","Sat Oct 03 2020 14:46:40 GMT-0400 (Eastern Daylight Time)","Sat Oct 03 2020 14:57:10 GMT-0400 (Eastern Daylight Time)","Mozilla/5.0 (Windows NT 6.1; Win64; x64) AppleWebKit/537.36 (KHTML, like Gecko) Chrome/85.0.4183.121 Safari/537.36",103,"[0.9, 0.5, 0.1]","[0.8, 0.4, 0.2]","[u'red', u'black', u'blue']","[u'left', u'middle', u'right']","[0.8, 0.4, 0.2]","[u'low', u'medium', u'high']","black",50,"middle","medium","True","False",178,5800,NA
"ADAL2H41ZBWAK","Sat Oct 03 2020 14:46:40 GMT-0400 (Eastern Daylight Time)","Sat Oct 03 2020 14:57:10 GMT-0400 (Eastern Daylight Time)","Mozilla/5.0 (Windows NT 6.1; Win64; x64) AppleWebKit/537.36 (KHTML, like Gecko) Chrome/85.0.4183.121 Safari/537.36",104,"[0.9, 0.5, 0.1]","[0.8, 0.4, 0.2]","[u'red', u'black', u'blue']","[u'left', u'middle', u'right']","[0.8, 0.4, 0.2]","[u'low', u'medium', u'high']","blue",51,"right","high","True","False",198,5900,NA
"ADAL2H41ZBWAK","Sat Oct 03 2020 14:46:40 GMT-0400 (Eastern Daylight Time)","Sat Oct 03 2020 14:57:10 GMT-0400 (Eastern Daylight Time)","Mozilla/5.0 (Windows NT 6.1; Win64; x64) AppleWebKit/537.36 (KHTML, like Gecko) Chrome/85.0.4183.121 Safari/537.36",105,"[0.9, 0.5, 0.1]","[0.8, 0.4, 0.2]","[u'red', u'black', u'blue']","[u'left', u'middle', u'right']","[0.8, 0.4, 0.2]","[u'low', u'medium', u'high']","blue",51,"right","high","True","False",96,6000,NA
"ADAL2H41ZBWAK","Sat Oct 03 2020 14:46:40 GMT-0400 (Eastern Daylight Time)","Sat Oct 03 2020 14:57:10 GMT-0400 (Eastern Daylight Time)","Mozilla/5.0 (Windows NT 6.1; Win64; x64) AppleWebKit/537.36 (KHTML, like Gecko) Chrome/85.0.4183.121 Safari/537.36",106,"[0.9, 0.5, 0.1]","[0.8, 0.4, 0.2]","[u'red', u'black', u'blue']","[u'left', u'middle', u'right']","[0.8, 0.4, 0.2]","[u'low', u'medium', u'high']","blue",51,"right","high","True","False",275,6100,NA
"ADAL2H41ZBWAK","Sat Oct 03 2020 14:46:40 GMT-0400 (Eastern Daylight Time)","Sat Oct 03 2020 14:57:10 GMT-0400 (Eastern Daylight Time)","Mozilla/5.0 (Windows NT 6.1; Win64; x64) AppleWebKit/537.36 (KHTML, like Gecko) Chrome/85.0.4183.121 Safari/537.36",107,"[0.9, 0.5, 0.1]","[0.8, 0.4, 0.2]","[u'red', u'black', u'blue']","[u'left', u'middle', u'right']","[0.8, 0.4, 0.2]","[u'low', u'medium', u'high']","blue",51,"right","high","True","False",359,6200,NA
"ADAL2H41ZBWAK","Sat Oct 03 2020 14:46:40 GMT-0400 (Eastern Daylight Time)","Sat Oct 03 2020 14:57:10 GMT-0400 (Eastern Daylight Time)","Mozilla/5.0 (Windows NT 6.1; Win64; x64) AppleWebKit/537.36 (KHTML, like Gecko) Chrome/85.0.4183.121 Safari/537.36",108,"[0.9, 0.5, 0.1]","[0.8, 0.4, 0.2]","[u'red', u'black', u'blue']","[u'left', u'middle', u'right']","[0.8, 0.4, 0.2]","[u'low', u'medium', u'high']","blue",51,"right","high","True","False",353,6300,NA
"ADAL2H41ZBWAK","Sat Oct 03 2020 14:46:40 GMT-0400 (Eastern Daylight Time)","Sat Oct 03 2020 14:57:10 GMT-0400 (Eastern Daylight Time)","Mozilla/5.0 (Windows NT 6.1; Win64; x64) AppleWebKit/537.36 (KHTML, like Gecko) Chrome/85.0.4183.121 Safari/537.36",109,"[0.9, 0.5, 0.1]","[0.8, 0.4, 0.2]","[u'red', u'black', u'blue']","[u'left', u'middle', u'right']","[0.8, 0.4, 0.2]","[u'low', u'medium', u'high']","blue",51,"right","high","True","False",366,6400,NA
"ADAL2H41ZBWAK","Sat Oct 03 2020 14:46:40 GMT-0400 (Eastern Daylight Time)","Sat Oct 03 2020 14:57:10 GMT-0400 (Eastern Daylight Time)","Mozilla/5.0 (Windows NT 6.1; Win64; x64) AppleWebKit/537.36 (KHTML, like Gecko) Chrome/85.0.4183.121 Safari/537.36",110,"[0.9, 0.5, 0.1]","[0.8, 0.4, 0.2]","[u'red', u'black', u'blue']","[u'left', u'middle', u'right']","[0.8, 0.4, 0.2]","[u'low', u'medium', u'high']","blue",51,"right","high","True","False",126,6500,NA
"ADAL2H41ZBWAK","Sat Oct 03 2020 14:46:40 GMT-0400 (Eastern Daylight Time)","Sat Oct 03 2020 14:57:10 GMT-0400 (Eastern Daylight Time)","Mozilla/5.0 (Windows NT 6.1; Win64; x64) AppleWebKit/537.36 (KHTML, like Gecko) Chrome/85.0.4183.121 Safari/537.36",111,"[0.9, 0.5, 0.1]","[0.8, 0.4, 0.2]","[u'red', u'black', u'blue']","[u'left', u'middle', u'right']","[0.8, 0.4, 0.2]","[u'low', u'medium', u'high']","blue",51,"right","high","True","False",243,6600,NA
"ADAL2H41ZBWAK","Sat Oct 03 2020 14:46:40 GMT-0400 (Eastern Daylight Time)","Sat Oct 03 2020 14:57:10 GMT-0400 (Eastern Daylight Time)","Mozilla/5.0 (Windows NT 6.1; Win64; x64) AppleWebKit/537.36 (KHTML, like Gecko) Chrome/85.0.4183.121 Safari/537.36",112,"[0.9, 0.5, 0.1]","[0.8, 0.4, 0.2]","[u'red', u'black', u'blue']","[u'left', u'middle', u'right']","[0.8, 0.4, 0.2]","[u'low', u'medium', u'high']","blue",51,"right","high","True","True",362,6700,NA
"ADAL2H41ZBWAK","Sat Oct 03 2020 14:46:40 GMT-0400 (Eastern Daylight Time)","Sat Oct 03 2020 14:57:10 GMT-0400 (Eastern Daylight Time)","Mozilla/5.0 (Windows NT 6.1; Win64; x64) AppleWebKit/537.36 (KHTML, like Gecko) Chrome/85.0.4183.121 Safari/537.36",113,"[0.9, 0.5, 0.1]","[0.8, 0.4, 0.2]","[u'red', u'black', u'blue']","[u'left', u'middle', u'right']","[0.8, 0.4, 0.2]","[u'low', u'high', u'medium']","blue",51,"right","medium","False","False",357,6650,NA
"ADAL2H41ZBWAK","Sat Oct 03 2020 14:46:40 GMT-0400 (Eastern Daylight Time)","Sat Oct 03 2020 14:57:10 GMT-0400 (Eastern Daylight Time)","Mozilla/5.0 (Windows NT 6.1; Win64; x64) AppleWebKit/537.36 (KHTML, like Gecko) Chrome/85.0.4183.121 Safari/537.36",114,"[0.9, 0.5, 0.1]","[0.8, 0.4, 0.2]","[u'red', u'black', u'blue']","[u'left', u'middle', u'right']","[0.8, 0.4, 0.2]","[u'low', u'high', u'medium']","black",50,"middle","high","True","False",455,6750,NA
"ADAL2H41ZBWAK","Sat Oct 03 2020 14:46:40 GMT-0400 (Eastern Daylight Time)","Sat Oct 03 2020 14:57:10 GMT-0400 (Eastern Daylight Time)","Mozilla/5.0 (Windows NT 6.1; Win64; x64) AppleWebKit/537.36 (KHTML, like Gecko) Chrome/85.0.4183.121 Safari/537.36",115,"[0.9, 0.5, 0.1]","[0.8, 0.4, 0.2]","[u'red', u'black', u'blue']","[u'left', u'middle', u'right']","[0.8, 0.4, 0.2]","[u'low', u'high', u'medium']","black",50,"middle","high","True","False",770,6850,NA
"ADAL2H41ZBWAK","Sat Oct 03 2020 14:46:40 GMT-0400 (Eastern Daylight Time)","Sat Oct 03 2020 14:57:10 GMT-0400 (Eastern Daylight Time)","Mozilla/5.0 (Windows NT 6.1; Win64; x64) AppleWebKit/537.36 (KHTML, like Gecko) Chrome/85.0.4183.121 Safari/537.36",116,"[0.9, 0.5, 0.1]","[0.8, 0.4, 0.2]","[u'red', u'black', u'blue']","[u'left', u'middle', u'right']","[0.8, 0.4, 0.2]","[u'low', u'high', u'medium']","black",50,"middle","high","False","False",276,6800,NA
"ADAL2H41ZBWAK","Sat Oct 03 2020 14:46:40 GMT-0400 (Eastern Daylight Time)","Sat Oct 03 2020 14:57:10 GMT-0400 (Eastern Daylight Time)","Mozilla/5.0 (Windows NT 6.1; Win64; x64) AppleWebKit/537.36 (KHTML, like Gecko) Chrome/85.0.4183.121 Safari/537.36",117,"[0.9, 0.5, 0.1]","[0.8, 0.4, 0.2]","[u'red', u'black', u'blue']","[u'left', u'middle', u'right']","[0.8, 0.4, 0.2]","[u'low', u'high', u'medium']","red",49,"left","low","False","False",393,6750,NA
"ADAL2H41ZBWAK","Sat Oct 03 2020 14:46:40 GMT-0400 (Eastern Daylight Time)","Sat Oct 03 2020 14:57:10 GMT-0400 (Eastern Daylight Time)","Mozilla/5.0 (Windows NT 6.1; Win64; x64) AppleWebKit/537.36 (KHTML, like Gecko) Chrome/85.0.4183.121 Safari/537.36",118,"[0.9, 0.5, 0.1]","[0.8, 0.4, 0.2]","[u'red', u'black', u'blue']","[u'left', u'middle', u'right']","[0.8, 0.4, 0.2]","[u'low', u'high', u'medium']","black",50,"middle","high","True","False",301,6850,NA
"ADAL2H41ZBWAK","Sat Oct 03 2020 14:46:40 GMT-0400 (Eastern Daylight Time)","Sat Oct 03 2020 14:57:10 GMT-0400 (Eastern Daylight Time)","Mozilla/5.0 (Windows NT 6.1; Win64; x64) AppleWebKit/537.36 (KHTML, like Gecko) Chrome/85.0.4183.121 Safari/537.36",119,"[0.9, 0.5, 0.1]","[0.8, 0.4, 0.2]","[u'red', u'black', u'blue']","[u'left', u'middle', u'right']","[0.8, 0.4, 0.2]","[u'low', u'high', u'medium']","black",50,"middle","high","True","False",306,6950,NA
"ADAL2H41ZBWAK","Sat Oct 03 2020 14:46:40 GMT-0400 (Eastern Daylight Time)","Sat Oct 03 2020 14:57:10 GMT-0400 (Eastern Daylight Time)","Mozilla/5.0 (Windows NT 6.1; Win64; x64) AppleWebKit/537.36 (KHTML, like Gecko) Chrome/85.0.4183.121 Safari/537.36",120,"[0.9, 0.5, 0.1]","[0.8, 0.4, 0.2]","[u'red', u'black', u'blue']","[u'left', u'middle', u'right']","[0.8, 0.4, 0.2]","[u'low', u'high', u'medium']","black",50,"middle","high","False","False",322,6900,NA
"ADAL2H41ZBWAK","Sat Oct 03 2020 14:46:40 GMT-0400 (Eastern Daylight Time)","Sat Oct 03 2020 14:57:10 GMT-0400 (Eastern Daylight Time)","Mozilla/5.0 (Windows NT 6.1; Win64; x64) AppleWebKit/537.36 (KHTML, like Gecko) Chrome/85.0.4183.121 Safari/537.36",121,"[0.9, 0.5, 0.1]","[0.8, 0.4, 0.2]","[u'red', u'black', u'blue']","[u'left', u'middle', u'right']","[0.8, 0.4, 0.2]","[u'high', u'medium', u'low']","black",50,"middle","medium","False","False",570,6850,NA
"ADAL2H41ZBWAK","Sat Oct 03 2020 14:46:40 GMT-0400 (Eastern Daylight Time)","Sat Oct 03 2020 14:57:10 GMT-0400 (Eastern Daylight Time)","Mozilla/5.0 (Windows NT 6.1; Win64; x64) AppleWebKit/537.36 (KHTML, like Gecko) Chrome/85.0.4183.121 Safari/537.36",122,"[0.9, 0.5, 0.1]","[0.8, 0.4, 0.2]","[u'red', u'black', u'blue']","[u'left', u'middle', u'right']","[0.8, 0.4, 0.2]","[u'high', u'medium', u'low']","blue",51,"right","low","True","False",356,6950,NA
"ADAL2H41ZBWAK","Sat Oct 03 2020 14:46:40 GMT-0400 (Eastern Daylight Time)","Sat Oct 03 2020 14:57:10 GMT-0400 (Eastern Daylight Time)","Mozilla/5.0 (Windows NT 6.1; Win64; x64) AppleWebKit/537.36 (KHTML, like Gecko) Chrome/85.0.4183.121 Safari/537.36",123,"[0.9, 0.5, 0.1]","[0.8, 0.4, 0.2]","[u'red', u'black', u'blue']","[u'left', u'middle', u'right']","[0.8, 0.4, 0.2]","[u'high', u'medium', u'low']","blue",51,"right","low","False","False",353,6900,NA
"ADAL2H41ZBWAK","Sat Oct 03 2020 14:46:40 GMT-0400 (Eastern Daylight Time)","Sat Oct 03 2020 14:57:10 GMT-0400 (Eastern Daylight Time)","Mozilla/5.0 (Windows NT 6.1; Win64; x64) AppleWebKit/537.36 (KHTML, like Gecko) Chrome/85.0.4183.121 Safari/537.36",124,"[0.9, 0.5, 0.1]","[0.8, 0.4, 0.2]","[u'red', u'black', u'blue']","[u'left', u'middle', u'right']","[0.8, 0.4, 0.2]","[u'high', u'medium', u'low']","red",49,"left","high","True","False",355,7000,NA
"ADAL2H41ZBWAK","Sat Oct 03 2020 14:46:40 GMT-0400 (Eastern Daylight Time)","Sat Oct 03 2020 14:57:10 GMT-0400 (Eastern Daylight Time)","Mozilla/5.0 (Windows NT 6.1; Win64; x64) AppleWebKit/537.36 (KHTML, like Gecko) Chrome/85.0.4183.121 Safari/537.36",125,"[0.9, 0.5, 0.1]","[0.8, 0.4, 0.2]","[u'red', u'black', u'blue']","[u'left', u'middle', u'right']","[0.8, 0.4, 0.2]","[u'high', u'medium', u'low']","red",49,"left","high","True","False",353,7100,NA
"ADAL2H41ZBWAK","Sat Oct 03 2020 14:46:40 GMT-0400 (Eastern Daylight Time)","Sat Oct 03 2020 14:57:10 GMT-0400 (Eastern Daylight Time)","Mozilla/5.0 (Windows NT 6.1; Win64; x64) AppleWebKit/537.36 (KHTML, like Gecko) Chrome/85.0.4183.121 Safari/537.36",126,"[0.9, 0.5, 0.1]","[0.8, 0.4, 0.2]","[u'red', u'black', u'blue']","[u'left', u'middle', u'right']","[0.8, 0.4, 0.2]","[u'high', u'medium', u'low']","red",49,"left","high","True","False",450,7200,NA
"ADAL2H41ZBWAK","Sat Oct 03 2020 14:46:40 GMT-0400 (Eastern Daylight Time)","Sat Oct 03 2020 14:57:10 GMT-0400 (Eastern Daylight Time)","Mozilla/5.0 (Windows NT 6.1; Win64; x64) AppleWebKit/537.36 (KHTML, like Gecko) Chrome/85.0.4183.121 Safari/537.36",127,"[0.9, 0.5, 0.1]","[0.8, 0.4, 0.2]","[u'red', u'black', u'blue']","[u'left', u'middle', u'right']","[0.8, 0.4, 0.2]","[u'high', u'medium', u'low']","red",49,"left","high","True","False",274,7300,NA
"ADAL2H41ZBWAK","Sat Oct 03 2020 14:46:40 GMT-0400 (Eastern Daylight Time)","Sat Oct 03 2020 14:57:10 GMT-0400 (Eastern Daylight Time)","Mozilla/5.0 (Windows NT 6.1; Win64; x64) AppleWebKit/537.36 (KHTML, like Gecko) Chrome/85.0.4183.121 Safari/537.36",128,"[0.9, 0.5, 0.1]","[0.8, 0.4, 0.2]","[u'red', u'black', u'blue']","[u'left', u'middle', u'right']","[0.8, 0.4, 0.2]","[u'high', u'medium', u'low']","red",49,"left","high","True","False",353,7400,NA
"ADAL2H41ZBWAK","Sat Oct 03 2020 14:46:40 GMT-0400 (Eastern Daylight Time)","Sat Oct 03 2020 14:57:10 GMT-0400 (Eastern Daylight Time)","Mozilla/5.0 (Windows NT 6.1; Win64; x64) AppleWebKit/537.36 (KHTML, like Gecko) Chrome/85.0.4183.121 Safari/537.36",129,"[0.9, 0.5, 0.1]","[0.8, 0.4, 0.2]","[u'red', u'black', u'blue']","[u'left', u'middle', u'right']","[0.8, 0.4, 0.2]","[u'high', u'medium', u'low']","red",49,"left","high","True","False",356,7500,NA
"ADAL2H41ZBWAK","Sat Oct 03 2020 14:46:40 GMT-0400 (Eastern Daylight Time)","Sat Oct 03 2020 14:57:10 GMT-0400 (Eastern Daylight Time)","Mozilla/5.0 (Windows NT 6.1; Win64; x64) AppleWebKit/537.36 (KHTML, like Gecko) Chrome/85.0.4183.121 Safari/537.36",130,"[0.9, 0.5, 0.1]","[0.8, 0.4, 0.2]","[u'red', u'black', u'blue']","[u'left', u'middle', u'right']","[0.8, 0.4, 0.2]","[u'high', u'medium', u'low']","red",49,"left","high","True","False",353,7600,NA
"ADAL2H41ZBWAK","Sat Oct 03 2020 14:46:40 GMT-0400 (Eastern Daylight Time)","Sat Oct 03 2020 14:57:10 GMT-0400 (Eastern Daylight Time)","Mozilla/5.0 (Windows NT 6.1; Win64; x64) AppleWebKit/537.36 (KHTML, like Gecko) Chrome/85.0.4183.121 Safari/537.36",131,"[0.9, 0.5, 0.1]","[0.8, 0.4, 0.2]","[u'red', u'black', u'blue']","[u'left', u'middle', u'right']","[0.8, 0.4, 0.2]","[u'high', u'medium', u'low']","red",49,"left","high","True","False",356,7700,NA
"ADAL2H41ZBWAK","Sat Oct 03 2020 14:46:40 GMT-0400 (Eastern Daylight Time)","Sat Oct 03 2020 14:57:10 GMT-0400 (Eastern Daylight Time)","Mozilla/5.0 (Windows NT 6.1; Win64; x64) AppleWebKit/537.36 (KHTML, like Gecko) Chrome/85.0.4183.121 Safari/537.36",132,"[0.9, 0.5, 0.1]","[0.8, 0.4, 0.2]","[u'red', u'black', u'blue']","[u'left', u'middle', u'right']","[0.8, 0.4, 0.2]","[u'high', u'medium', u'low']","red",49,"left","high","False","True",357,7650,NA
"ADAL2H41ZBWAK","Sat Oct 03 2020 14:46:40 GMT-0400 (Eastern Daylight Time)","Sat Oct 03 2020 14:57:10 GMT-0400 (Eastern Daylight Time)","Mozilla/5.0 (Windows NT 6.1; Win64; x64) AppleWebKit/537.36 (KHTML, like Gecko) Chrome/85.0.4183.121 Safari/537.36",133,"[0.9, 0.5, 0.1]","[0.8, 0.4, 0.2]","[u'red', u'black', u'blue']","[u'left', u'middle', u'right']","[0.8, 0.4, 0.2]","[u'low', u'high', u'medium']","black",50,"middle","high","True","False",395,7750,NA
"ADAL2H41ZBWAK","Sat Oct 03 2020 14:46:40 GMT-0400 (Eastern Daylight Time)","Sat Oct 03 2020 14:57:10 GMT-0400 (Eastern Daylight Time)","Mozilla/5.0 (Windows NT 6.1; Win64; x64) AppleWebKit/537.36 (KHTML, like Gecko) Chrome/85.0.4183.121 Safari/537.36",134,"[0.9, 0.5, 0.1]","[0.8, 0.4, 0.2]","[u'red', u'black', u'blue']","[u'left', u'middle', u'right']","[0.8, 0.4, 0.2]","[u'low', u'high', u'medium']","black",50,"middle","high","True","False",354,7850,NA
"ADAL2H41ZBWAK","Sat Oct 03 2020 14:46:40 GMT-0400 (Eastern Daylight Time)","Sat Oct 03 2020 14:57:10 GMT-0400 (Eastern Daylight Time)","Mozilla/5.0 (Windows NT 6.1; Win64; x64) AppleWebKit/537.36 (KHTML, like Gecko) Chrome/85.0.4183.121 Safari/537.36",135,"[0.9, 0.5, 0.1]","[0.8, 0.4, 0.2]","[u'red', u'black', u'blue']","[u'left', u'middle', u'right']","[0.8, 0.4, 0.2]","[u'low', u'high', u'medium']","black",50,"middle","high","True","False",130,7950,NA
"ADAL2H41ZBWAK","Sat Oct 03 2020 14:46:40 GMT-0400 (Eastern Daylight Time)","Sat Oct 03 2020 14:57:10 GMT-0400 (Eastern Daylight Time)","Mozilla/5.0 (Windows NT 6.1; Win64; x64) AppleWebKit/537.36 (KHTML, like Gecko) Chrome/85.0.4183.121 Safari/537.36",136,"[0.9, 0.5, 0.1]","[0.8, 0.4, 0.2]","[u'red', u'black', u'blue']","[u'left', u'middle', u'right']","[0.8, 0.4, 0.2]","[u'low', u'high', u'medium']","black",50,"middle","high","True","False",4356,8050,NA
"ADAL2H41ZBWAK","Sat Oct 03 2020 14:46:40 GMT-0400 (Eastern Daylight Time)","Sat Oct 03 2020 14:57:10 GMT-0400 (Eastern Daylight Time)","Mozilla/5.0 (Windows NT 6.1; Win64; x64) AppleWebKit/537.36 (KHTML, like Gecko) Chrome/85.0.4183.121 Safari/537.36",137,"[0.9, 0.5, 0.1]","[0.8, 0.4, 0.2]","[u'red', u'black', u'blue']","[u'left', u'middle', u'right']","[0.8, 0.4, 0.2]","[u'low', u'high', u'medium']","black",50,"middle","high","False","False",415,8000,NA
"ADAL2H41ZBWAK","Sat Oct 03 2020 14:46:40 GMT-0400 (Eastern Daylight Time)","Sat Oct 03 2020 14:57:10 GMT-0400 (Eastern Daylight Time)","Mozilla/5.0 (Windows NT 6.1; Win64; x64) AppleWebKit/537.36 (KHTML, like Gecko) Chrome/85.0.4183.121 Safari/537.36",138,"[0.9, 0.5, 0.1]","[0.8, 0.4, 0.2]","[u'red', u'black', u'blue']","[u'left', u'middle', u'right']","[0.8, 0.4, 0.2]","[u'low', u'high', u'medium']","blue",51,"right","medium","True","False",399,8100,NA
"ADAL2H41ZBWAK","Sat Oct 03 2020 14:46:40 GMT-0400 (Eastern Daylight Time)","Sat Oct 03 2020 14:57:10 GMT-0400 (Eastern Daylight Time)","Mozilla/5.0 (Windows NT 6.1; Win64; x64) AppleWebKit/537.36 (KHTML, like Gecko) Chrome/85.0.4183.121 Safari/537.36",139,"[0.9, 0.5, 0.1]","[0.8, 0.4, 0.2]","[u'red', u'black', u'blue']","[u'left', u'middle', u'right']","[0.8, 0.4, 0.2]","[u'low', u'high', u'medium']","blue",51,"right","medium","False","False",291,8050,NA
"ADAL2H41ZBWAK","Sat Oct 03 2020 14:46:40 GMT-0400 (Eastern Daylight Time)","Sat Oct 03 2020 14:57:10 GMT-0400 (Eastern Daylight Time)","Mozilla/5.0 (Windows NT 6.1; Win64; x64) AppleWebKit/537.36 (KHTML, like Gecko) Chrome/85.0.4183.121 Safari/537.36",140,"[0.9, 0.5, 0.1]","[0.8, 0.4, 0.2]","[u'red', u'black', u'blue']","[u'left', u'middle', u'right']","[0.8, 0.4, 0.2]","[u'low', u'high', u'medium']","black",50,"middle","high","True","False",354,8150,NA
"ADAL2H41ZBWAK","Sat Oct 03 2020 14:46:40 GMT-0400 (Eastern Daylight Time)","Sat Oct 03 2020 14:57:10 GMT-0400 (Eastern Daylight Time)","Mozilla/5.0 (Windows NT 6.1; Win64; x64) AppleWebKit/537.36 (KHTML, like Gecko) Chrome/85.0.4183.121 Safari/537.36",141,"[0.9, 0.5, 0.1]","[0.8, 0.4, 0.2]","[u'red', u'black', u'blue']","[u'left', u'middle', u'right']","[0.8, 0.4, 0.2]","[u'low', u'high', u'medium']","black",50,"middle","high","True","False",1442,8250,NA
"ADAL2H41ZBWAK","Sat Oct 03 2020 14:46:40 GMT-0400 (Eastern Daylight Time)","Sat Oct 03 2020 14:57:10 GMT-0400 (Eastern Daylight Time)","Mozilla/5.0 (Windows NT 6.1; Win64; x64) AppleWebKit/537.36 (KHTML, like Gecko) Chrome/85.0.4183.121 Safari/537.36",142,"[0.9, 0.5, 0.1]","[0.8, 0.4, 0.2]","[u'red', u'black', u'blue']","[u'left', u'middle', u'right']","[0.8, 0.4, 0.2]","[u'low', u'high', u'medium']","black",50,"middle","high","True","False",369,8350,NA
"ADAL2H41ZBWAK","Sat Oct 03 2020 14:46:40 GMT-0400 (Eastern Daylight Time)","Sat Oct 03 2020 14:57:10 GMT-0400 (Eastern Daylight Time)","Mozilla/5.0 (Windows NT 6.1; Win64; x64) AppleWebKit/537.36 (KHTML, like Gecko) Chrome/85.0.4183.121 Safari/537.36",143,"[0.9, 0.5, 0.1]","[0.8, 0.4, 0.2]","[u'red', u'black', u'blue']","[u'left', u'middle', u'right']","[0.8, 0.4, 0.2]","[u'low', u'high', u'medium']","black",50,"middle","high","True","False",361,8450,NA
"ADAL2H41ZBWAK","Sat Oct 03 2020 14:46:40 GMT-0400 (Eastern Daylight Time)","Sat Oct 03 2020 14:57:10 GMT-0400 (Eastern Daylight Time)","Mozilla/5.0 (Windows NT 6.1; Win64; x64) AppleWebKit/537.36 (KHTML, like Gecko) Chrome/85.0.4183.121 Safari/537.36",144,"[0.9, 0.5, 0.1]","[0.8, 0.4, 0.2]","[u'red', u'black', u'blue']","[u'left', u'middle', u'right']","[0.8, 0.4, 0.2]","[u'low', u'high', u'medium']","black",50,"middle","high","True","False",351,8550,NA
"ADAL2H41ZBWAK","Sat Oct 03 2020 14:46:40 GMT-0400 (Eastern Daylight Time)","Sat Oct 03 2020 14:57:10 GMT-0400 (Eastern Daylight Time)","Mozilla/5.0 (Windows NT 6.1; Win64; x64) AppleWebKit/537.36 (KHTML, like Gecko) Chrome/85.0.4183.121 Safari/537.36",145,"[0.9, 0.5, 0.1]","[0.8, 0.4, 0.2]","[u'red', u'black', u'blue']","[u'left', u'middle', u'right']","[0.8, 0.4, 0.2]","[u'low', u'high', u'medium']","black",50,"middle","high","True","False",373,8650,NA
"ADAL2H41ZBWAK","Sat Oct 03 2020 14:46:40 GMT-0400 (Eastern Daylight Time)","Sat Oct 03 2020 14:57:10 GMT-0400 (Eastern Daylight Time)","Mozilla/5.0 (Windows NT 6.1; Win64; x64) AppleWebKit/537.36 (KHTML, like Gecko) Chrome/85.0.4183.121 Safari/537.36",146,"[0.9, 0.5, 0.1]","[0.8, 0.4, 0.2]","[u'red', u'black', u'blue']","[u'left', u'middle', u'right']","[0.8, 0.4, 0.2]","[u'low', u'high', u'medium']","black",50,"middle","high","True","False",353,8750,NA
"ADAL2H41ZBWAK","Sat Oct 03 2020 14:46:40 GMT-0400 (Eastern Daylight Time)","Sat Oct 03 2020 14:57:10 GMT-0400 (Eastern Daylight Time)","Mozilla/5.0 (Windows NT 6.1; Win64; x64) AppleWebKit/537.36 (KHTML, like Gecko) Chrome/85.0.4183.121 Safari/537.36",147,"[0.9, 0.5, 0.1]","[0.8, 0.4, 0.2]","[u'red', u'black', u'blue']","[u'left', u'middle', u'right']","[0.8, 0.4, 0.2]","[u'low', u'high', u'medium']","black",50,"middle","high","True","False",363,8850,NA
"ADAL2H41ZBWAK","Sat Oct 03 2020 14:46:40 GMT-0400 (Eastern Daylight Time)","Sat Oct 03 2020 14:57:10 GMT-0400 (Eastern Daylight Time)","Mozilla/5.0 (Windows NT 6.1; Win64; x64) AppleWebKit/537.36 (KHTML, like Gecko) Chrome/85.0.4183.121 Safari/537.36",148,"[0.9, 0.5, 0.1]","[0.8, 0.4, 0.2]","[u'red', u'black', u'blue']","[u'left', u'middle', u'right']","[0.8, 0.4, 0.2]","[u'low', u'high', u'medium']","black",50,"middle","high","True","True",365,8950,NA
"ADAL2H41ZBWAK","Sat Oct 03 2020 14:46:40 GMT-0400 (Eastern Daylight Time)","Sat Oct 03 2020 14:57:10 GMT-0400 (Eastern Daylight Time)","Mozilla/5.0 (Windows NT 6.1; Win64; x64) AppleWebKit/537.36 (KHTML, like Gecko) Chrome/85.0.4183.121 Safari/537.36",149,"[0.9, 0.5, 0.1]","[0.8, 0.4, 0.2]","[u'red', u'black', u'blue']","[u'left', u'middle', u'right']","[0.8, 0.4, 0.2]","[u'medium', u'low', u'high']","black",50,"middle","low","False","False",356,8900,NA
"ADAL2H41ZBWAK","Sat Oct 03 2020 14:46:40 GMT-0400 (Eastern Daylight Time)","Sat Oct 03 2020 14:57:10 GMT-0400 (Eastern Daylight Time)","Mozilla/5.0 (Windows NT 6.1; Win64; x64) AppleWebKit/537.36 (KHTML, like Gecko) Chrome/85.0.4183.121 Safari/537.36",150,"[0.9, 0.5, 0.1]","[0.8, 0.4, 0.2]","[u'red', u'black', u'blue']","[u'left', u'middle', u'right']","[0.8, 0.4, 0.2]","[u'medium', u'low', u'high']","red",49,"left","medium","False","False",363,8850,NA
"ADAL2H41ZBWAK","Sat Oct 03 2020 14:46:40 GMT-0400 (Eastern Daylight Time)","Sat Oct 03 2020 14:57:10 GMT-0400 (Eastern Daylight Time)","Mozilla/5.0 (Windows NT 6.1; Win64; x64) AppleWebKit/537.36 (KHTML, like Gecko) Chrome/85.0.4183.121 Safari/537.36",151,"[0.9, 0.5, 0.1]","[0.8, 0.4, 0.2]","[u'red', u'black', u'blue']","[u'left', u'middle', u'right']","[0.8, 0.4, 0.2]","[u'medium', u'low', u'high']","black",50,"middle","low","True","False",324,8950,NA
"ADAL2H41ZBWAK","Sat Oct 03 2020 14:46:40 GMT-0400 (Eastern Daylight Time)","Sat Oct 03 2020 14:57:10 GMT-0400 (Eastern Daylight Time)","Mozilla/5.0 (Windows NT 6.1; Win64; x64) AppleWebKit/537.36 (KHTML, like Gecko) Chrome/85.0.4183.121 Safari/537.36",152,"[0.9, 0.5, 0.1]","[0.8, 0.4, 0.2]","[u'red', u'black', u'blue']","[u'left', u'middle', u'right']","[0.8, 0.4, 0.2]","[u'medium', u'low', u'high']","black",50,"middle","low","False","False",362,8900,NA
"ADAL2H41ZBWAK","Sat Oct 03 2020 14:46:40 GMT-0400 (Eastern Daylight Time)","Sat Oct 03 2020 14:57:10 GMT-0400 (Eastern Daylight Time)","Mozilla/5.0 (Windows NT 6.1; Win64; x64) AppleWebKit/537.36 (KHTML, like Gecko) Chrome/85.0.4183.121 Safari/537.36",153,"[0.9, 0.5, 0.1]","[0.8, 0.4, 0.2]","[u'red', u'black', u'blue']","[u'left', u'middle', u'right']","[0.8, 0.4, 0.2]","[u'medium', u'low', u'high']","blue",51,"right","high","True","False",249,9000,NA
"ADAL2H41ZBWAK","Sat Oct 03 2020 14:46:40 GMT-0400 (Eastern Daylight Time)","Sat Oct 03 2020 14:57:10 GMT-0400 (Eastern Daylight Time)","Mozilla/5.0 (Windows NT 6.1; Win64; x64) AppleWebKit/537.36 (KHTML, like Gecko) Chrome/85.0.4183.121 Safari/537.36",154,"[0.9, 0.5, 0.1]","[0.8, 0.4, 0.2]","[u'red', u'black', u'blue']","[u'left', u'middle', u'right']","[0.8, 0.4, 0.2]","[u'medium', u'low', u'high']","blue",51,"right","high","True","False",290,9100,NA
"ADAL2H41ZBWAK","Sat Oct 03 2020 14:46:40 GMT-0400 (Eastern Daylight Time)","Sat Oct 03 2020 14:57:10 GMT-0400 (Eastern Daylight Time)","Mozilla/5.0 (Windows NT 6.1; Win64; x64) AppleWebKit/537.36 (KHTML, like Gecko) Chrome/85.0.4183.121 Safari/537.36",155,"[0.9, 0.5, 0.1]","[0.8, 0.4, 0.2]","[u'red', u'black', u'blue']","[u'left', u'middle', u'right']","[0.8, 0.4, 0.2]","[u'medium', u'low', u'high']","blue",51,"right","high","True","False",353,9200,NA
"ADAL2H41ZBWAK","Sat Oct 03 2020 14:46:40 GMT-0400 (Eastern Daylight Time)","Sat Oct 03 2020 14:57:10 GMT-0400 (Eastern Daylight Time)","Mozilla/5.0 (Windows NT 6.1; Win64; x64) AppleWebKit/537.36 (KHTML, like Gecko) Chrome/85.0.4183.121 Safari/537.36",156,"[0.9, 0.5, 0.1]","[0.8, 0.4, 0.2]","[u'red', u'black', u'blue']","[u'left', u'middle', u'right']","[0.8, 0.4, 0.2]","[u'medium', u'low', u'high']","blue",51,"right","high","True","False",355,9300,NA
"ADAL2H41ZBWAK","Sat Oct 03 2020 14:46:40 GMT-0400 (Eastern Daylight Time)","Sat Oct 03 2020 14:57:10 GMT-0400 (Eastern Daylight Time)","Mozilla/5.0 (Windows NT 6.1; Win64; x64) AppleWebKit/537.36 (KHTML, like Gecko) Chrome/85.0.4183.121 Safari/537.36",157,"[0.9, 0.5, 0.1]","[0.8, 0.4, 0.2]","[u'red', u'black', u'blue']","[u'left', u'middle', u'right']","[0.8, 0.4, 0.2]","[u'medium', u'low', u'high']","blue",51,"right","high","True","False",356,9400,NA
"ADAL2H41ZBWAK","Sat Oct 03 2020 14:46:40 GMT-0400 (Eastern Daylight Time)","Sat Oct 03 2020 14:57:10 GMT-0400 (Eastern Daylight Time)","Mozilla/5.0 (Windows NT 6.1; Win64; x64) AppleWebKit/537.36 (KHTML, like Gecko) Chrome/85.0.4183.121 Safari/537.36",158,"[0.9, 0.5, 0.1]","[0.8, 0.4, 0.2]","[u'red', u'black', u'blue']","[u'left', u'middle', u'right']","[0.8, 0.4, 0.2]","[u'medium', u'low', u'high']","blue",51,"right","high","True","False",352,9500,NA
"ADAL2H41ZBWAK","Sat Oct 03 2020 14:46:40 GMT-0400 (Eastern Daylight Time)","Sat Oct 03 2020 14:57:10 GMT-0400 (Eastern Daylight Time)","Mozilla/5.0 (Windows NT 6.1; Win64; x64) AppleWebKit/537.36 (KHTML, like Gecko) Chrome/85.0.4183.121 Safari/537.36",159,"[0.9, 0.5, 0.1]","[0.8, 0.4, 0.2]","[u'red', u'black', u'blue']","[u'left', u'middle', u'right']","[0.8, 0.4, 0.2]","[u'medium', u'low', u'high']","blue",51,"right","high","True","False",355,9600,NA
"ADAL2H41ZBWAK","Sat Oct 03 2020 14:46:40 GMT-0400 (Eastern Daylight Time)","Sat Oct 03 2020 14:57:10 GMT-0400 (Eastern Daylight Time)","Mozilla/5.0 (Windows NT 6.1; Win64; x64) AppleWebKit/537.36 (KHTML, like Gecko) Chrome/85.0.4183.121 Safari/537.36",160,"[0.9, 0.5, 0.1]","[0.8, 0.4, 0.2]","[u'red', u'black', u'blue']","[u'left', u'middle', u'right']","[0.8, 0.4, 0.2]","[u'medium', u'low', u'high']","blue",51,"right","high","True","False",356,9700,NA
