"src_subject_id","start_time","end_time","browser","index","first_half_probabilities","second_half_probabilities","deck_color","deck_position","deck_probabilities","deck_contingencies","response_color","key_press","response_position","response_probability","reward_type","trial_type","rt","reward_tally","exclusion_reason"
"AP26GRD3QSPRP","Sat Oct 03 2020 16:30:27 GMT-0500 (Central Daylight Time)","Sat Oct 03 2020 16:36:29 GMT-0500 (Central Daylight Time)","Mozilla/5.0 (Macintosh; Intel Mac OS X 10_15_7) AppleWebKit/537.36 (KHTML, like Gecko) Chrome/85.0.4183.121 Safari/537.36",1,"[0.9, 0.5, 0.1]","[0.8, 0.4, 0.2]","[u'blue', u'red', u'black']","[u'left', u'middle', u'right']","[0.9, 0.5, 0.1]","[u'high', u'medium', u'low']","black",51,"right","low","False","False",1080,-50,NA
"AP26GRD3QSPRP","Sat Oct 03 2020 16:30:27 GMT-0500 (Central Daylight Time)","Sat Oct 03 2020 16:36:29 GMT-0500 (Central Daylight Time)","Mozilla/5.0 (Macintosh; Intel Mac OS X 10_15_7) AppleWebKit/537.36 (KHTML, like Gecko) Chrome/85.0.4183.121 Safari/537.36",2,"[0.9, 0.5, 0.1]","[0.8, 0.4, 0.2]","[u'blue', u'red', u'black']","[u'left', u'middle', u'right']","[0.9, 0.5, 0.1]","[u'high', u'medium', u'low']","red",50,"middle","medium","True","False",670,50,NA
"AP26GRD3QSPRP","Sat Oct 03 2020 16:30:27 GMT-0500 (Central Daylight Time)","Sat Oct 03 2020 16:36:29 GMT-0500 (Central Daylight Time)","Mozilla/5.0 (Macintosh; Intel Mac OS X 10_15_7) AppleWebKit/537.36 (KHTML, like Gecko) Chrome/85.0.4183.121 Safari/537.36",3,"[0.9, 0.5, 0.1]","[0.8, 0.4, 0.2]","[u'blue', u'red', u'black']","[u'left', u'middle', u'right']","[0.9, 0.5, 0.1]","[u'high', u'medium', u'low']","red",50,"middle","medium","False","False",596,0,NA
"AP26GRD3QSPRP","Sat Oct 03 2020 16:30:27 GMT-0500 (Central Daylight Time)","Sat Oct 03 2020 16:36:29 GMT-0500 (Central Daylight Time)","Mozilla/5.0 (Macintosh; Intel Mac OS X 10_15_7) AppleWebKit/537.36 (KHTML, like Gecko) Chrome/85.0.4183.121 Safari/537.36",4,"[0.9, 0.5, 0.1]","[0.8, 0.4, 0.2]","[u'blue', u'red', u'black']","[u'left', u'middle', u'right']","[0.9, 0.5, 0.1]","[u'high', u'medium', u'low']","blue",49,"left","high","True","False",581,100,NA
"AP26GRD3QSPRP","Sat Oct 03 2020 16:30:27 GMT-0500 (Central Daylight Time)","Sat Oct 03 2020 16:36:29 GMT-0500 (Central Daylight Time)","Mozilla/5.0 (Macintosh; Intel Mac OS X 10_15_7) AppleWebKit/537.36 (KHTML, like Gecko) Chrome/85.0.4183.121 Safari/537.36",5,"[0.9, 0.5, 0.1]","[0.8, 0.4, 0.2]","[u'blue', u'red', u'black']","[u'left', u'middle', u'right']","[0.9, 0.5, 0.1]","[u'high', u'medium', u'low']","blue",49,"left","high","True","False",447,200,NA
"AP26GRD3QSPRP","Sat Oct 03 2020 16:30:27 GMT-0500 (Central Daylight Time)","Sat Oct 03 2020 16:36:29 GMT-0500 (Central Daylight Time)","Mozilla/5.0 (Macintosh; Intel Mac OS X 10_15_7) AppleWebKit/537.36 (KHTML, like Gecko) Chrome/85.0.4183.121 Safari/537.36",6,"[0.9, 0.5, 0.1]","[0.8, 0.4, 0.2]","[u'blue', u'red', u'black']","[u'left', u'middle', u'right']","[0.9, 0.5, 0.1]","[u'high', u'medium', u'low']","blue",49,"left","high","True","False",463,300,NA
"AP26GRD3QSPRP","Sat Oct 03 2020 16:30:27 GMT-0500 (Central Daylight Time)","Sat Oct 03 2020 16:36:29 GMT-0500 (Central Daylight Time)","Mozilla/5.0 (Macintosh; Intel Mac OS X 10_15_7) AppleWebKit/537.36 (KHTML, like Gecko) Chrome/85.0.4183.121 Safari/537.36",7,"[0.9, 0.5, 0.1]","[0.8, 0.4, 0.2]","[u'blue', u'red', u'black']","[u'left', u'middle', u'right']","[0.9, 0.5, 0.1]","[u'high', u'medium', u'low']","blue",49,"left","high","True","False",491,400,NA
"AP26GRD3QSPRP","Sat Oct 03 2020 16:30:27 GMT-0500 (Central Daylight Time)","Sat Oct 03 2020 16:36:29 GMT-0500 (Central Daylight Time)","Mozilla/5.0 (Macintosh; Intel Mac OS X 10_15_7) AppleWebKit/537.36 (KHTML, like Gecko) Chrome/85.0.4183.121 Safari/537.36",8,"[0.9, 0.5, 0.1]","[0.8, 0.4, 0.2]","[u'blue', u'red', u'black']","[u'left', u'middle', u'right']","[0.9, 0.5, 0.1]","[u'high', u'medium', u'low']","blue",49,"left","high","True","False",374,500,NA
"AP26GRD3QSPRP","Sat Oct 03 2020 16:30:27 GMT-0500 (Central Daylight Time)","Sat Oct 03 2020 16:36:29 GMT-0500 (Central Daylight Time)","Mozilla/5.0 (Macintosh; Intel Mac OS X 10_15_7) AppleWebKit/537.36 (KHTML, like Gecko) Chrome/85.0.4183.121 Safari/537.36",9,"[0.9, 0.5, 0.1]","[0.8, 0.4, 0.2]","[u'blue', u'red', u'black']","[u'left', u'middle', u'right']","[0.9, 0.5, 0.1]","[u'high', u'medium', u'low']","blue",49,"left","high","True","False",389,600,NA
"AP26GRD3QSPRP","Sat Oct 03 2020 16:30:27 GMT-0500 (Central Daylight Time)","Sat Oct 03 2020 16:36:29 GMT-0500 (Central Daylight Time)","Mozilla/5.0 (Macintosh; Intel Mac OS X 10_15_7) AppleWebKit/537.36 (KHTML, like Gecko) Chrome/85.0.4183.121 Safari/537.36",10,"[0.9, 0.5, 0.1]","[0.8, 0.4, 0.2]","[u'blue', u'red', u'black']","[u'left', u'middle', u'right']","[0.9, 0.5, 0.1]","[u'high', u'medium', u'low']","blue",49,"left","high","False","False",370,550,NA
"AP26GRD3QSPRP","Sat Oct 03 2020 16:30:27 GMT-0500 (Central Daylight Time)","Sat Oct 03 2020 16:36:29 GMT-0500 (Central Daylight Time)","Mozilla/5.0 (Macintosh; Intel Mac OS X 10_15_7) AppleWebKit/537.36 (KHTML, like Gecko) Chrome/85.0.4183.121 Safari/537.36",11,"[0.9, 0.5, 0.1]","[0.8, 0.4, 0.2]","[u'blue', u'red', u'black']","[u'left', u'middle', u'right']","[0.9, 0.5, 0.1]","[u'high', u'medium', u'low']","black",51,"right","low","False","False",612,500,NA
"AP26GRD3QSPRP","Sat Oct 03 2020 16:30:27 GMT-0500 (Central Daylight Time)","Sat Oct 03 2020 16:36:29 GMT-0500 (Central Daylight Time)","Mozilla/5.0 (Macintosh; Intel Mac OS X 10_15_7) AppleWebKit/537.36 (KHTML, like Gecko) Chrome/85.0.4183.121 Safari/537.36",12,"[0.9, 0.5, 0.1]","[0.8, 0.4, 0.2]","[u'blue', u'red', u'black']","[u'left', u'middle', u'right']","[0.9, 0.5, 0.1]","[u'high', u'medium', u'low']","red",50,"middle","medium","True","False",1287,600,NA
"AP26GRD3QSPRP","Sat Oct 03 2020 16:30:27 GMT-0500 (Central Daylight Time)","Sat Oct 03 2020 16:36:29 GMT-0500 (Central Daylight Time)","Mozilla/5.0 (Macintosh; Intel Mac OS X 10_15_7) AppleWebKit/537.36 (KHTML, like Gecko) Chrome/85.0.4183.121 Safari/537.36",13,"[0.9, 0.5, 0.1]","[0.8, 0.4, 0.2]","[u'blue', u'red', u'black']","[u'left', u'middle', u'right']","[0.9, 0.5, 0.1]","[u'high', u'medium', u'low']","red",50,"middle","medium","False","False",430,550,NA
"AP26GRD3QSPRP","Sat Oct 03 2020 16:30:27 GMT-0500 (Central Daylight Time)","Sat Oct 03 2020 16:36:29 GMT-0500 (Central Daylight Time)","Mozilla/5.0 (Macintosh; Intel Mac OS X 10_15_7) AppleWebKit/537.36 (KHTML, like Gecko) Chrome/85.0.4183.121 Safari/537.36",14,"[0.9, 0.5, 0.1]","[0.8, 0.4, 0.2]","[u'blue', u'red', u'black']","[u'left', u'middle', u'right']","[0.9, 0.5, 0.1]","[u'high', u'medium', u'low']","blue",49,"left","high","True","False",389,650,NA
"AP26GRD3QSPRP","Sat Oct 03 2020 16:30:27 GMT-0500 (Central Daylight Time)","Sat Oct 03 2020 16:36:29 GMT-0500 (Central Daylight Time)","Mozilla/5.0 (Macintosh; Intel Mac OS X 10_15_7) AppleWebKit/537.36 (KHTML, like Gecko) Chrome/85.0.4183.121 Safari/537.36",15,"[0.9, 0.5, 0.1]","[0.8, 0.4, 0.2]","[u'blue', u'red', u'black']","[u'left', u'middle', u'right']","[0.9, 0.5, 0.1]","[u'high', u'medium', u'low']","blue",49,"left","high","True","False",330,750,NA
"AP26GRD3QSPRP","Sat Oct 03 2020 16:30:27 GMT-0500 (Central Daylight Time)","Sat Oct 03 2020 16:36:29 GMT-0500 (Central Daylight Time)","Mozilla/5.0 (Macintosh; Intel Mac OS X 10_15_7) AppleWebKit/537.36 (KHTML, like Gecko) Chrome/85.0.4183.121 Safari/537.36",16,"[0.9, 0.5, 0.1]","[0.8, 0.4, 0.2]","[u'blue', u'red', u'black']","[u'left', u'middle', u'right']","[0.9, 0.5, 0.1]","[u'high', u'medium', u'low']","blue",49,"left","high","True","False",328,850,NA
"AP26GRD3QSPRP","Sat Oct 03 2020 16:30:27 GMT-0500 (Central Daylight Time)","Sat Oct 03 2020 16:36:29 GMT-0500 (Central Daylight Time)","Mozilla/5.0 (Macintosh; Intel Mac OS X 10_15_7) AppleWebKit/537.36 (KHTML, like Gecko) Chrome/85.0.4183.121 Safari/537.36",17,"[0.9, 0.5, 0.1]","[0.8, 0.4, 0.2]","[u'blue', u'red', u'black']","[u'left', u'middle', u'right']","[0.9, 0.5, 0.1]","[u'high', u'medium', u'low']","blue",49,"left","high","True","False",296,950,NA
"AP26GRD3QSPRP","Sat Oct 03 2020 16:30:27 GMT-0500 (Central Daylight Time)","Sat Oct 03 2020 16:36:29 GMT-0500 (Central Daylight Time)","Mozilla/5.0 (Macintosh; Intel Mac OS X 10_15_7) AppleWebKit/537.36 (KHTML, like Gecko) Chrome/85.0.4183.121 Safari/537.36",18,"[0.9, 0.5, 0.1]","[0.8, 0.4, 0.2]","[u'blue', u'red', u'black']","[u'left', u'middle', u'right']","[0.9, 0.5, 0.1]","[u'high', u'medium', u'low']","blue",49,"left","high","True","False",297,1050,NA
"AP26GRD3QSPRP","Sat Oct 03 2020 16:30:27 GMT-0500 (Central Daylight Time)","Sat Oct 03 2020 16:36:29 GMT-0500 (Central Daylight Time)","Mozilla/5.0 (Macintosh; Intel Mac OS X 10_15_7) AppleWebKit/537.36 (KHTML, like Gecko) Chrome/85.0.4183.121 Safari/537.36",19,"[0.9, 0.5, 0.1]","[0.8, 0.4, 0.2]","[u'blue', u'red', u'black']","[u'left', u'middle', u'right']","[0.9, 0.5, 0.1]","[u'high', u'medium', u'low']","blue",49,"left","high","False","False",236,1000,NA
"AP26GRD3QSPRP","Sat Oct 03 2020 16:30:27 GMT-0500 (Central Daylight Time)","Sat Oct 03 2020 16:36:29 GMT-0500 (Central Daylight Time)","Mozilla/5.0 (Macintosh; Intel Mac OS X 10_15_7) AppleWebKit/537.36 (KHTML, like Gecko) Chrome/85.0.4183.121 Safari/537.36",20,"[0.9, 0.5, 0.1]","[0.8, 0.4, 0.2]","[u'blue', u'red', u'black']","[u'left', u'middle', u'right']","[0.9, 0.5, 0.1]","[u'high', u'medium', u'low']","red",50,"middle","medium","True","False",734,1100,NA
"AP26GRD3QSPRP","Sat Oct 03 2020 16:30:27 GMT-0500 (Central Daylight Time)","Sat Oct 03 2020 16:36:29 GMT-0500 (Central Daylight Time)","Mozilla/5.0 (Macintosh; Intel Mac OS X 10_15_7) AppleWebKit/537.36 (KHTML, like Gecko) Chrome/85.0.4183.121 Safari/537.36",21,"[0.9, 0.5, 0.1]","[0.8, 0.4, 0.2]","[u'blue', u'red', u'black']","[u'left', u'middle', u'right']","[0.9, 0.5, 0.1]","[u'high', u'medium', u'low']","red",50,"middle","medium","True","False",341,1200,NA
"AP26GRD3QSPRP","Sat Oct 03 2020 16:30:27 GMT-0500 (Central Daylight Time)","Sat Oct 03 2020 16:36:29 GMT-0500 (Central Daylight Time)","Mozilla/5.0 (Macintosh; Intel Mac OS X 10_15_7) AppleWebKit/537.36 (KHTML, like Gecko) Chrome/85.0.4183.121 Safari/537.36",22,"[0.9, 0.5, 0.1]","[0.8, 0.4, 0.2]","[u'blue', u'red', u'black']","[u'left', u'middle', u'right']","[0.9, 0.5, 0.1]","[u'high', u'medium', u'low']","red",50,"middle","medium","True","False",355,1300,NA
"AP26GRD3QSPRP","Sat Oct 03 2020 16:30:27 GMT-0500 (Central Daylight Time)","Sat Oct 03 2020 16:36:29 GMT-0500 (Central Daylight Time)","Mozilla/5.0 (Macintosh; Intel Mac OS X 10_15_7) AppleWebKit/537.36 (KHTML, like Gecko) Chrome/85.0.4183.121 Safari/537.36",23,"[0.9, 0.5, 0.1]","[0.8, 0.4, 0.2]","[u'blue', u'red', u'black']","[u'left', u'middle', u'right']","[0.9, 0.5, 0.1]","[u'high', u'medium', u'low']","red",50,"middle","medium","True","False",1092,1400,NA
"AP26GRD3QSPRP","Sat Oct 03 2020 16:30:27 GMT-0500 (Central Daylight Time)","Sat Oct 03 2020 16:36:29 GMT-0500 (Central Daylight Time)","Mozilla/5.0 (Macintosh; Intel Mac OS X 10_15_7) AppleWebKit/537.36 (KHTML, like Gecko) Chrome/85.0.4183.121 Safari/537.36",24,"[0.9, 0.5, 0.1]","[0.8, 0.4, 0.2]","[u'blue', u'red', u'black']","[u'left', u'middle', u'right']","[0.9, 0.5, 0.1]","[u'high', u'medium', u'low']","red",50,"middle","medium","True","False",281,1500,NA
"AP26GRD3QSPRP","Sat Oct 03 2020 16:30:27 GMT-0500 (Central Daylight Time)","Sat Oct 03 2020 16:36:29 GMT-0500 (Central Daylight Time)","Mozilla/5.0 (Macintosh; Intel Mac OS X 10_15_7) AppleWebKit/537.36 (KHTML, like Gecko) Chrome/85.0.4183.121 Safari/537.36",25,"[0.9, 0.5, 0.1]","[0.8, 0.4, 0.2]","[u'blue', u'red', u'black']","[u'left', u'middle', u'right']","[0.9, 0.5, 0.1]","[u'high', u'medium', u'low']","red",50,"middle","medium","True","False",146,1600,NA
"AP26GRD3QSPRP","Sat Oct 03 2020 16:30:27 GMT-0500 (Central Daylight Time)","Sat Oct 03 2020 16:36:29 GMT-0500 (Central Daylight Time)","Mozilla/5.0 (Macintosh; Intel Mac OS X 10_15_7) AppleWebKit/537.36 (KHTML, like Gecko) Chrome/85.0.4183.121 Safari/537.36",26,"[0.9, 0.5, 0.1]","[0.8, 0.4, 0.2]","[u'blue', u'red', u'black']","[u'left', u'middle', u'right']","[0.9, 0.5, 0.1]","[u'high', u'medium', u'low']","red",50,"middle","medium","False","False",191,1550,NA
"AP26GRD3QSPRP","Sat Oct 03 2020 16:30:27 GMT-0500 (Central Daylight Time)","Sat Oct 03 2020 16:36:29 GMT-0500 (Central Daylight Time)","Mozilla/5.0 (Macintosh; Intel Mac OS X 10_15_7) AppleWebKit/537.36 (KHTML, like Gecko) Chrome/85.0.4183.121 Safari/537.36",27,"[0.9, 0.5, 0.1]","[0.8, 0.4, 0.2]","[u'blue', u'red', u'black']","[u'left', u'middle', u'right']","[0.9, 0.5, 0.1]","[u'high', u'medium', u'low']","blue",49,"left","high","True","False",89,1650,NA
"AP26GRD3QSPRP","Sat Oct 03 2020 16:30:27 GMT-0500 (Central Daylight Time)","Sat Oct 03 2020 16:36:29 GMT-0500 (Central Daylight Time)","Mozilla/5.0 (Macintosh; Intel Mac OS X 10_15_7) AppleWebKit/537.36 (KHTML, like Gecko) Chrome/85.0.4183.121 Safari/537.36",28,"[0.9, 0.5, 0.1]","[0.8, 0.4, 0.2]","[u'blue', u'red', u'black']","[u'left', u'middle', u'right']","[0.9, 0.5, 0.1]","[u'high', u'medium', u'low']","blue",49,"left","high","True","False",72,1750,NA
"AP26GRD3QSPRP","Sat Oct 03 2020 16:30:27 GMT-0500 (Central Daylight Time)","Sat Oct 03 2020 16:36:29 GMT-0500 (Central Daylight Time)","Mozilla/5.0 (Macintosh; Intel Mac OS X 10_15_7) AppleWebKit/537.36 (KHTML, like Gecko) Chrome/85.0.4183.121 Safari/537.36",29,"[0.9, 0.5, 0.1]","[0.8, 0.4, 0.2]","[u'blue', u'red', u'black']","[u'left', u'middle', u'right']","[0.9, 0.5, 0.1]","[u'high', u'medium', u'low']","blue",49,"left","high","True","False",12,1850,NA
"AP26GRD3QSPRP","Sat Oct 03 2020 16:30:27 GMT-0500 (Central Daylight Time)","Sat Oct 03 2020 16:36:29 GMT-0500 (Central Daylight Time)","Mozilla/5.0 (Macintosh; Intel Mac OS X 10_15_7) AppleWebKit/537.36 (KHTML, like Gecko) Chrome/85.0.4183.121 Safari/537.36",30,"[0.9, 0.5, 0.1]","[0.8, 0.4, 0.2]","[u'blue', u'red', u'black']","[u'left', u'middle', u'right']","[0.9, 0.5, 0.1]","[u'high', u'medium', u'low']","blue",49,"left","high","True","False",210,1950,NA
"AP26GRD3QSPRP","Sat Oct 03 2020 16:30:27 GMT-0500 (Central Daylight Time)","Sat Oct 03 2020 16:36:29 GMT-0500 (Central Daylight Time)","Mozilla/5.0 (Macintosh; Intel Mac OS X 10_15_7) AppleWebKit/537.36 (KHTML, like Gecko) Chrome/85.0.4183.121 Safari/537.36",31,"[0.9, 0.5, 0.1]","[0.8, 0.4, 0.2]","[u'blue', u'red', u'black']","[u'left', u'middle', u'right']","[0.9, 0.5, 0.1]","[u'high', u'medium', u'low']","blue",49,"left","high","True","False",148,2050,NA
"AP26GRD3QSPRP","Sat Oct 03 2020 16:30:27 GMT-0500 (Central Daylight Time)","Sat Oct 03 2020 16:36:29 GMT-0500 (Central Daylight Time)","Mozilla/5.0 (Macintosh; Intel Mac OS X 10_15_7) AppleWebKit/537.36 (KHTML, like Gecko) Chrome/85.0.4183.121 Safari/537.36",32,"[0.9, 0.5, 0.1]","[0.8, 0.4, 0.2]","[u'blue', u'red', u'black']","[u'left', u'middle', u'right']","[0.9, 0.5, 0.1]","[u'high', u'medium', u'low']","blue",49,"left","high","True","False",237,2150,NA
"AP26GRD3QSPRP","Sat Oct 03 2020 16:30:27 GMT-0500 (Central Daylight Time)","Sat Oct 03 2020 16:36:29 GMT-0500 (Central Daylight Time)","Mozilla/5.0 (Macintosh; Intel Mac OS X 10_15_7) AppleWebKit/537.36 (KHTML, like Gecko) Chrome/85.0.4183.121 Safari/537.36",33,"[0.9, 0.5, 0.1]","[0.8, 0.4, 0.2]","[u'blue', u'red', u'black']","[u'left', u'middle', u'right']","[0.9, 0.5, 0.1]","[u'high', u'medium', u'low']","blue",49,"left","high","True","False",87,2250,NA
"AP26GRD3QSPRP","Sat Oct 03 2020 16:30:27 GMT-0500 (Central Daylight Time)","Sat Oct 03 2020 16:36:29 GMT-0500 (Central Daylight Time)","Mozilla/5.0 (Macintosh; Intel Mac OS X 10_15_7) AppleWebKit/537.36 (KHTML, like Gecko) Chrome/85.0.4183.121 Safari/537.36",34,"[0.9, 0.5, 0.1]","[0.8, 0.4, 0.2]","[u'blue', u'red', u'black']","[u'left', u'middle', u'right']","[0.9, 0.5, 0.1]","[u'high', u'medium', u'low']","blue",49,"left","high","True","False",162,2350,NA
"AP26GRD3QSPRP","Sat Oct 03 2020 16:30:27 GMT-0500 (Central Daylight Time)","Sat Oct 03 2020 16:36:29 GMT-0500 (Central Daylight Time)","Mozilla/5.0 (Macintosh; Intel Mac OS X 10_15_7) AppleWebKit/537.36 (KHTML, like Gecko) Chrome/85.0.4183.121 Safari/537.36",35,"[0.9, 0.5, 0.1]","[0.8, 0.4, 0.2]","[u'blue', u'red', u'black']","[u'left', u'middle', u'right']","[0.9, 0.5, 0.1]","[u'high', u'medium', u'low']","blue",49,"left","high","False","True",236,2300,NA
"AP26GRD3QSPRP","Sat Oct 03 2020 16:30:27 GMT-0500 (Central Daylight Time)","Sat Oct 03 2020 16:36:29 GMT-0500 (Central Daylight Time)","Mozilla/5.0 (Macintosh; Intel Mac OS X 10_15_7) AppleWebKit/537.36 (KHTML, like Gecko) Chrome/85.0.4183.121 Safari/537.36",36,"[0.9, 0.5, 0.1]","[0.8, 0.4, 0.2]","[u'blue', u'red', u'black']","[u'left', u'middle', u'right']","[0.9, 0.5, 0.1]","[u'low', u'medium', u'high']","black",51,"right","high","True","False",466,2400,NA
"AP26GRD3QSPRP","Sat Oct 03 2020 16:30:27 GMT-0500 (Central Daylight Time)","Sat Oct 03 2020 16:36:29 GMT-0500 (Central Daylight Time)","Mozilla/5.0 (Macintosh; Intel Mac OS X 10_15_7) AppleWebKit/537.36 (KHTML, like Gecko) Chrome/85.0.4183.121 Safari/537.36",37,"[0.9, 0.5, 0.1]","[0.8, 0.4, 0.2]","[u'blue', u'red', u'black']","[u'left', u'middle', u'right']","[0.9, 0.5, 0.1]","[u'low', u'medium', u'high']","black",51,"right","high","True","False",191,2500,NA
"AP26GRD3QSPRP","Sat Oct 03 2020 16:30:27 GMT-0500 (Central Daylight Time)","Sat Oct 03 2020 16:36:29 GMT-0500 (Central Daylight Time)","Mozilla/5.0 (Macintosh; Intel Mac OS X 10_15_7) AppleWebKit/537.36 (KHTML, like Gecko) Chrome/85.0.4183.121 Safari/537.36",38,"[0.9, 0.5, 0.1]","[0.8, 0.4, 0.2]","[u'blue', u'red', u'black']","[u'left', u'middle', u'right']","[0.9, 0.5, 0.1]","[u'low', u'medium', u'high']","black",51,"right","high","True","False",119,2600,NA
"AP26GRD3QSPRP","Sat Oct 03 2020 16:30:27 GMT-0500 (Central Daylight Time)","Sat Oct 03 2020 16:36:29 GMT-0500 (Central Daylight Time)","Mozilla/5.0 (Macintosh; Intel Mac OS X 10_15_7) AppleWebKit/537.36 (KHTML, like Gecko) Chrome/85.0.4183.121 Safari/537.36",39,"[0.9, 0.5, 0.1]","[0.8, 0.4, 0.2]","[u'blue', u'red', u'black']","[u'left', u'middle', u'right']","[0.9, 0.5, 0.1]","[u'low', u'medium', u'high']","black",51,"right","high","True","False",102,2700,NA
"AP26GRD3QSPRP","Sat Oct 03 2020 16:30:27 GMT-0500 (Central Daylight Time)","Sat Oct 03 2020 16:36:29 GMT-0500 (Central Daylight Time)","Mozilla/5.0 (Macintosh; Intel Mac OS X 10_15_7) AppleWebKit/537.36 (KHTML, like Gecko) Chrome/85.0.4183.121 Safari/537.36",40,"[0.9, 0.5, 0.1]","[0.8, 0.4, 0.2]","[u'blue', u'red', u'black']","[u'left', u'middle', u'right']","[0.9, 0.5, 0.1]","[u'low', u'medium', u'high']","black",51,"right","high","True","False",175,2800,NA
"AP26GRD3QSPRP","Sat Oct 03 2020 16:30:27 GMT-0500 (Central Daylight Time)","Sat Oct 03 2020 16:36:29 GMT-0500 (Central Daylight Time)","Mozilla/5.0 (Macintosh; Intel Mac OS X 10_15_7) AppleWebKit/537.36 (KHTML, like Gecko) Chrome/85.0.4183.121 Safari/537.36",41,"[0.9, 0.5, 0.1]","[0.8, 0.4, 0.2]","[u'blue', u'red', u'black']","[u'left', u'middle', u'right']","[0.9, 0.5, 0.1]","[u'high', u'low', u'medium']","black",51,"right","medium","False","False",875,2750,NA
"AP26GRD3QSPRP","Sat Oct 03 2020 16:30:27 GMT-0500 (Central Daylight Time)","Sat Oct 03 2020 16:36:29 GMT-0500 (Central Daylight Time)","Mozilla/5.0 (Macintosh; Intel Mac OS X 10_15_7) AppleWebKit/537.36 (KHTML, like Gecko) Chrome/85.0.4183.121 Safari/537.36",42,"[0.9, 0.5, 0.1]","[0.8, 0.4, 0.2]","[u'blue', u'red', u'black']","[u'left', u'middle', u'right']","[0.9, 0.5, 0.1]","[u'high', u'low', u'medium']","blue",49,"left","high","False","False",163,2700,NA
"AP26GRD3QSPRP","Sat Oct 03 2020 16:30:27 GMT-0500 (Central Daylight Time)","Sat Oct 03 2020 16:36:29 GMT-0500 (Central Daylight Time)","Mozilla/5.0 (Macintosh; Intel Mac OS X 10_15_7) AppleWebKit/537.36 (KHTML, like Gecko) Chrome/85.0.4183.121 Safari/537.36",43,"[0.9, 0.5, 0.1]","[0.8, 0.4, 0.2]","[u'blue', u'red', u'black']","[u'left', u'middle', u'right']","[0.9, 0.5, 0.1]","[u'high', u'low', u'medium']","red",50,"middle","low","False","False",131,2650,NA
"AP26GRD3QSPRP","Sat Oct 03 2020 16:30:27 GMT-0500 (Central Daylight Time)","Sat Oct 03 2020 16:36:29 GMT-0500 (Central Daylight Time)","Mozilla/5.0 (Macintosh; Intel Mac OS X 10_15_7) AppleWebKit/537.36 (KHTML, like Gecko) Chrome/85.0.4183.121 Safari/537.36",44,"[0.9, 0.5, 0.1]","[0.8, 0.4, 0.2]","[u'blue', u'red', u'black']","[u'left', u'middle', u'right']","[0.9, 0.5, 0.1]","[u'high', u'low', u'medium']","blue",49,"left","high","True","False",375,2750,NA
"AP26GRD3QSPRP","Sat Oct 03 2020 16:30:27 GMT-0500 (Central Daylight Time)","Sat Oct 03 2020 16:36:29 GMT-0500 (Central Daylight Time)","Mozilla/5.0 (Macintosh; Intel Mac OS X 10_15_7) AppleWebKit/537.36 (KHTML, like Gecko) Chrome/85.0.4183.121 Safari/537.36",45,"[0.9, 0.5, 0.1]","[0.8, 0.4, 0.2]","[u'blue', u'red', u'black']","[u'left', u'middle', u'right']","[0.9, 0.5, 0.1]","[u'high', u'low', u'medium']","blue",49,"left","high","True","False",161,2850,NA
"AP26GRD3QSPRP","Sat Oct 03 2020 16:30:27 GMT-0500 (Central Daylight Time)","Sat Oct 03 2020 16:36:29 GMT-0500 (Central Daylight Time)","Mozilla/5.0 (Macintosh; Intel Mac OS X 10_15_7) AppleWebKit/537.36 (KHTML, like Gecko) Chrome/85.0.4183.121 Safari/537.36",46,"[0.9, 0.5, 0.1]","[0.8, 0.4, 0.2]","[u'blue', u'red', u'black']","[u'left', u'middle', u'right']","[0.9, 0.5, 0.1]","[u'high', u'low', u'medium']","blue",49,"left","high","True","False",149,2950,NA
"AP26GRD3QSPRP","Sat Oct 03 2020 16:30:27 GMT-0500 (Central Daylight Time)","Sat Oct 03 2020 16:36:29 GMT-0500 (Central Daylight Time)","Mozilla/5.0 (Macintosh; Intel Mac OS X 10_15_7) AppleWebKit/537.36 (KHTML, like Gecko) Chrome/85.0.4183.121 Safari/537.36",47,"[0.9, 0.5, 0.1]","[0.8, 0.4, 0.2]","[u'blue', u'red', u'black']","[u'left', u'middle', u'right']","[0.9, 0.5, 0.1]","[u'high', u'low', u'medium']","blue",49,"left","high","True","False",149,3050,NA
"AP26GRD3QSPRP","Sat Oct 03 2020 16:30:27 GMT-0500 (Central Daylight Time)","Sat Oct 03 2020 16:36:29 GMT-0500 (Central Daylight Time)","Mozilla/5.0 (Macintosh; Intel Mac OS X 10_15_7) AppleWebKit/537.36 (KHTML, like Gecko) Chrome/85.0.4183.121 Safari/537.36",48,"[0.9, 0.5, 0.1]","[0.8, 0.4, 0.2]","[u'blue', u'red', u'black']","[u'left', u'middle', u'right']","[0.9, 0.5, 0.1]","[u'high', u'low', u'medium']","blue",49,"left","high","True","False",10,3150,NA
"AP26GRD3QSPRP","Sat Oct 03 2020 16:30:27 GMT-0500 (Central Daylight Time)","Sat Oct 03 2020 16:36:29 GMT-0500 (Central Daylight Time)","Mozilla/5.0 (Macintosh; Intel Mac OS X 10_15_7) AppleWebKit/537.36 (KHTML, like Gecko) Chrome/85.0.4183.121 Safari/537.36",49,"[0.9, 0.5, 0.1]","[0.8, 0.4, 0.2]","[u'blue', u'red', u'black']","[u'left', u'middle', u'right']","[0.9, 0.5, 0.1]","[u'high', u'low', u'medium']","blue",49,"left","high","True","False",88,3250,NA
"AP26GRD3QSPRP","Sat Oct 03 2020 16:30:27 GMT-0500 (Central Daylight Time)","Sat Oct 03 2020 16:36:29 GMT-0500 (Central Daylight Time)","Mozilla/5.0 (Macintosh; Intel Mac OS X 10_15_7) AppleWebKit/537.36 (KHTML, like Gecko) Chrome/85.0.4183.121 Safari/537.36",50,"[0.9, 0.5, 0.1]","[0.8, 0.4, 0.2]","[u'blue', u'red', u'black']","[u'left', u'middle', u'right']","[0.9, 0.5, 0.1]","[u'high', u'low', u'medium']","blue",49,"left","high","True","False",86,3350,NA
"AP26GRD3QSPRP","Sat Oct 03 2020 16:30:27 GMT-0500 (Central Daylight Time)","Sat Oct 03 2020 16:36:29 GMT-0500 (Central Daylight Time)","Mozilla/5.0 (Macintosh; Intel Mac OS X 10_15_7) AppleWebKit/537.36 (KHTML, like Gecko) Chrome/85.0.4183.121 Safari/537.36",51,"[0.9, 0.5, 0.1]","[0.8, 0.4, 0.2]","[u'blue', u'red', u'black']","[u'left', u'middle', u'right']","[0.9, 0.5, 0.1]","[u'high', u'low', u'medium']","blue",49,"left","high","True","True",448,3450,NA
"AP26GRD3QSPRP","Sat Oct 03 2020 16:30:27 GMT-0500 (Central Daylight Time)","Sat Oct 03 2020 16:36:29 GMT-0500 (Central Daylight Time)","Mozilla/5.0 (Macintosh; Intel Mac OS X 10_15_7) AppleWebKit/537.36 (KHTML, like Gecko) Chrome/85.0.4183.121 Safari/537.36",52,"[0.9, 0.5, 0.1]","[0.8, 0.4, 0.2]","[u'blue', u'red', u'black']","[u'left', u'middle', u'right']","[0.9, 0.5, 0.1]","[u'low', u'medium', u'high']","blue",49,"left","low","False","False",145,3400,NA
"AP26GRD3QSPRP","Sat Oct 03 2020 16:30:27 GMT-0500 (Central Daylight Time)","Sat Oct 03 2020 16:36:29 GMT-0500 (Central Daylight Time)","Mozilla/5.0 (Macintosh; Intel Mac OS X 10_15_7) AppleWebKit/537.36 (KHTML, like Gecko) Chrome/85.0.4183.121 Safari/537.36",53,"[0.9, 0.5, 0.1]","[0.8, 0.4, 0.2]","[u'blue', u'red', u'black']","[u'left', u'middle', u'right']","[0.9, 0.5, 0.1]","[u'low', u'medium', u'high']","black",51,"right","high","True","False",160,3500,NA
"AP26GRD3QSPRP","Sat Oct 03 2020 16:30:27 GMT-0500 (Central Daylight Time)","Sat Oct 03 2020 16:36:29 GMT-0500 (Central Daylight Time)","Mozilla/5.0 (Macintosh; Intel Mac OS X 10_15_7) AppleWebKit/537.36 (KHTML, like Gecko) Chrome/85.0.4183.121 Safari/537.36",54,"[0.9, 0.5, 0.1]","[0.8, 0.4, 0.2]","[u'blue', u'red', u'black']","[u'left', u'middle', u'right']","[0.9, 0.5, 0.1]","[u'low', u'medium', u'high']","black",51,"right","high","True","False",120,3600,NA
"AP26GRD3QSPRP","Sat Oct 03 2020 16:30:27 GMT-0500 (Central Daylight Time)","Sat Oct 03 2020 16:36:29 GMT-0500 (Central Daylight Time)","Mozilla/5.0 (Macintosh; Intel Mac OS X 10_15_7) AppleWebKit/537.36 (KHTML, like Gecko) Chrome/85.0.4183.121 Safari/537.36",55,"[0.9, 0.5, 0.1]","[0.8, 0.4, 0.2]","[u'blue', u'red', u'black']","[u'left', u'middle', u'right']","[0.9, 0.5, 0.1]","[u'low', u'medium', u'high']","black",51,"right","high","True","False",129,3700,NA
"AP26GRD3QSPRP","Sat Oct 03 2020 16:30:27 GMT-0500 (Central Daylight Time)","Sat Oct 03 2020 16:36:29 GMT-0500 (Central Daylight Time)","Mozilla/5.0 (Macintosh; Intel Mac OS X 10_15_7) AppleWebKit/537.36 (KHTML, like Gecko) Chrome/85.0.4183.121 Safari/537.36",56,"[0.9, 0.5, 0.1]","[0.8, 0.4, 0.2]","[u'blue', u'red', u'black']","[u'left', u'middle', u'right']","[0.9, 0.5, 0.1]","[u'low', u'medium', u'high']","black",51,"right","high","True","False",236,3800,NA
"AP26GRD3QSPRP","Sat Oct 03 2020 16:30:27 GMT-0500 (Central Daylight Time)","Sat Oct 03 2020 16:36:29 GMT-0500 (Central Daylight Time)","Mozilla/5.0 (Macintosh; Intel Mac OS X 10_15_7) AppleWebKit/537.36 (KHTML, like Gecko) Chrome/85.0.4183.121 Safari/537.36",57,"[0.9, 0.5, 0.1]","[0.8, 0.4, 0.2]","[u'blue', u'red', u'black']","[u'left', u'middle', u'right']","[0.9, 0.5, 0.1]","[u'low', u'medium', u'high']","black",51,"right","high","True","False",192,3900,NA
"AP26GRD3QSPRP","Sat Oct 03 2020 16:30:27 GMT-0500 (Central Daylight Time)","Sat Oct 03 2020 16:36:29 GMT-0500 (Central Daylight Time)","Mozilla/5.0 (Macintosh; Intel Mac OS X 10_15_7) AppleWebKit/537.36 (KHTML, like Gecko) Chrome/85.0.4183.121 Safari/537.36",58,"[0.9, 0.5, 0.1]","[0.8, 0.4, 0.2]","[u'blue', u'red', u'black']","[u'left', u'middle', u'right']","[0.9, 0.5, 0.1]","[u'low', u'medium', u'high']","black",51,"right","high","True","False",267,4000,NA
"AP26GRD3QSPRP","Sat Oct 03 2020 16:30:27 GMT-0500 (Central Daylight Time)","Sat Oct 03 2020 16:36:29 GMT-0500 (Central Daylight Time)","Mozilla/5.0 (Macintosh; Intel Mac OS X 10_15_7) AppleWebKit/537.36 (KHTML, like Gecko) Chrome/85.0.4183.121 Safari/537.36",59,"[0.9, 0.5, 0.1]","[0.8, 0.4, 0.2]","[u'blue', u'red', u'black']","[u'left', u'middle', u'right']","[0.9, 0.5, 0.1]","[u'low', u'medium', u'high']","black",51,"right","high","True","False",249,4100,NA
"AP26GRD3QSPRP","Sat Oct 03 2020 16:30:27 GMT-0500 (Central Daylight Time)","Sat Oct 03 2020 16:36:29 GMT-0500 (Central Daylight Time)","Mozilla/5.0 (Macintosh; Intel Mac OS X 10_15_7) AppleWebKit/537.36 (KHTML, like Gecko) Chrome/85.0.4183.121 Safari/537.36",60,"[0.9, 0.5, 0.1]","[0.8, 0.4, 0.2]","[u'blue', u'red', u'black']","[u'left', u'middle', u'right']","[0.9, 0.5, 0.1]","[u'low', u'medium', u'high']","black",51,"right","high","True","False",297,4200,NA
"AP26GRD3QSPRP","Sat Oct 03 2020 16:30:27 GMT-0500 (Central Daylight Time)","Sat Oct 03 2020 16:36:29 GMT-0500 (Central Daylight Time)","Mozilla/5.0 (Macintosh; Intel Mac OS X 10_15_7) AppleWebKit/537.36 (KHTML, like Gecko) Chrome/85.0.4183.121 Safari/537.36",61,"[0.9, 0.5, 0.1]","[0.8, 0.4, 0.2]","[u'blue', u'red', u'black']","[u'left', u'middle', u'right']","[0.9, 0.5, 0.1]","[u'low', u'medium', u'high']","black",51,"right","high","True","True",358,4300,NA
"AP26GRD3QSPRP","Sat Oct 03 2020 16:30:27 GMT-0500 (Central Daylight Time)","Sat Oct 03 2020 16:36:29 GMT-0500 (Central Daylight Time)","Mozilla/5.0 (Macintosh; Intel Mac OS X 10_15_7) AppleWebKit/537.36 (KHTML, like Gecko) Chrome/85.0.4183.121 Safari/537.36",62,"[0.9, 0.5, 0.1]","[0.8, 0.4, 0.2]","[u'blue', u'red', u'black']","[u'left', u'middle', u'right']","[0.9, 0.5, 0.1]","[u'low', u'high', u'medium']","black",51,"right","medium","True","False",101,4400,NA
"AP26GRD3QSPRP","Sat Oct 03 2020 16:30:27 GMT-0500 (Central Daylight Time)","Sat Oct 03 2020 16:36:29 GMT-0500 (Central Daylight Time)","Mozilla/5.0 (Macintosh; Intel Mac OS X 10_15_7) AppleWebKit/537.36 (KHTML, like Gecko) Chrome/85.0.4183.121 Safari/537.36",63,"[0.9, 0.5, 0.1]","[0.8, 0.4, 0.2]","[u'blue', u'red', u'black']","[u'left', u'middle', u'right']","[0.9, 0.5, 0.1]","[u'low', u'high', u'medium']","black",51,"right","medium","True","False",252,4500,NA
"AP26GRD3QSPRP","Sat Oct 03 2020 16:30:27 GMT-0500 (Central Daylight Time)","Sat Oct 03 2020 16:36:29 GMT-0500 (Central Daylight Time)","Mozilla/5.0 (Macintosh; Intel Mac OS X 10_15_7) AppleWebKit/537.36 (KHTML, like Gecko) Chrome/85.0.4183.121 Safari/537.36",64,"[0.9, 0.5, 0.1]","[0.8, 0.4, 0.2]","[u'blue', u'red', u'black']","[u'left', u'middle', u'right']","[0.9, 0.5, 0.1]","[u'low', u'high', u'medium']","black",51,"right","medium","False","False",296,4450,NA
"AP26GRD3QSPRP","Sat Oct 03 2020 16:30:27 GMT-0500 (Central Daylight Time)","Sat Oct 03 2020 16:36:29 GMT-0500 (Central Daylight Time)","Mozilla/5.0 (Macintosh; Intel Mac OS X 10_15_7) AppleWebKit/537.36 (KHTML, like Gecko) Chrome/85.0.4183.121 Safari/537.36",65,"[0.9, 0.5, 0.1]","[0.8, 0.4, 0.2]","[u'blue', u'red', u'black']","[u'left', u'middle', u'right']","[0.9, 0.5, 0.1]","[u'low', u'high', u'medium']","blue",49,"left","low","True","False",100,4550,NA
"AP26GRD3QSPRP","Sat Oct 03 2020 16:30:27 GMT-0500 (Central Daylight Time)","Sat Oct 03 2020 16:36:29 GMT-0500 (Central Daylight Time)","Mozilla/5.0 (Macintosh; Intel Mac OS X 10_15_7) AppleWebKit/537.36 (KHTML, like Gecko) Chrome/85.0.4183.121 Safari/537.36",66,"[0.9, 0.5, 0.1]","[0.8, 0.4, 0.2]","[u'blue', u'red', u'black']","[u'left', u'middle', u'right']","[0.9, 0.5, 0.1]","[u'low', u'high', u'medium']","blue",49,"left","low","False","False",194,4500,NA
"AP26GRD3QSPRP","Sat Oct 03 2020 16:30:27 GMT-0500 (Central Daylight Time)","Sat Oct 03 2020 16:36:29 GMT-0500 (Central Daylight Time)","Mozilla/5.0 (Macintosh; Intel Mac OS X 10_15_7) AppleWebKit/537.36 (KHTML, like Gecko) Chrome/85.0.4183.121 Safari/537.36",67,"[0.9, 0.5, 0.1]","[0.8, 0.4, 0.2]","[u'blue', u'red', u'black']","[u'left', u'middle', u'right']","[0.9, 0.5, 0.1]","[u'low', u'high', u'medium']","red",50,"middle","high","True","False",129,4600,NA
"AP26GRD3QSPRP","Sat Oct 03 2020 16:30:27 GMT-0500 (Central Daylight Time)","Sat Oct 03 2020 16:36:29 GMT-0500 (Central Daylight Time)","Mozilla/5.0 (Macintosh; Intel Mac OS X 10_15_7) AppleWebKit/537.36 (KHTML, like Gecko) Chrome/85.0.4183.121 Safari/537.36",68,"[0.9, 0.5, 0.1]","[0.8, 0.4, 0.2]","[u'blue', u'red', u'black']","[u'left', u'middle', u'right']","[0.9, 0.5, 0.1]","[u'low', u'high', u'medium']","red",50,"middle","high","True","False",162,4700,NA
"AP26GRD3QSPRP","Sat Oct 03 2020 16:30:27 GMT-0500 (Central Daylight Time)","Sat Oct 03 2020 16:36:29 GMT-0500 (Central Daylight Time)","Mozilla/5.0 (Macintosh; Intel Mac OS X 10_15_7) AppleWebKit/537.36 (KHTML, like Gecko) Chrome/85.0.4183.121 Safari/537.36",69,"[0.9, 0.5, 0.1]","[0.8, 0.4, 0.2]","[u'blue', u'red', u'black']","[u'left', u'middle', u'right']","[0.9, 0.5, 0.1]","[u'low', u'high', u'medium']","red",50,"middle","high","True","False",340,4800,NA
"AP26GRD3QSPRP","Sat Oct 03 2020 16:30:27 GMT-0500 (Central Daylight Time)","Sat Oct 03 2020 16:36:29 GMT-0500 (Central Daylight Time)","Mozilla/5.0 (Macintosh; Intel Mac OS X 10_15_7) AppleWebKit/537.36 (KHTML, like Gecko) Chrome/85.0.4183.121 Safari/537.36",70,"[0.9, 0.5, 0.1]","[0.8, 0.4, 0.2]","[u'blue', u'red', u'black']","[u'left', u'middle', u'right']","[0.9, 0.5, 0.1]","[u'low', u'high', u'medium']","red",50,"middle","high","True","False",207,4900,NA
"AP26GRD3QSPRP","Sat Oct 03 2020 16:30:27 GMT-0500 (Central Daylight Time)","Sat Oct 03 2020 16:36:29 GMT-0500 (Central Daylight Time)","Mozilla/5.0 (Macintosh; Intel Mac OS X 10_15_7) AppleWebKit/537.36 (KHTML, like Gecko) Chrome/85.0.4183.121 Safari/537.36",71,"[0.9, 0.5, 0.1]","[0.8, 0.4, 0.2]","[u'blue', u'red', u'black']","[u'left', u'middle', u'right']","[0.9, 0.5, 0.1]","[u'low', u'high', u'medium']","red",50,"middle","high","True","False",104,5000,NA
"AP26GRD3QSPRP","Sat Oct 03 2020 16:30:27 GMT-0500 (Central Daylight Time)","Sat Oct 03 2020 16:36:29 GMT-0500 (Central Daylight Time)","Mozilla/5.0 (Macintosh; Intel Mac OS X 10_15_7) AppleWebKit/537.36 (KHTML, like Gecko) Chrome/85.0.4183.121 Safari/537.36",72,"[0.9, 0.5, 0.1]","[0.8, 0.4, 0.2]","[u'blue', u'red', u'black']","[u'left', u'middle', u'right']","[0.9, 0.5, 0.1]","[u'low', u'high', u'medium']","red",50,"middle","high","True","False",406,5100,NA
"AP26GRD3QSPRP","Sat Oct 03 2020 16:30:27 GMT-0500 (Central Daylight Time)","Sat Oct 03 2020 16:36:29 GMT-0500 (Central Daylight Time)","Mozilla/5.0 (Macintosh; Intel Mac OS X 10_15_7) AppleWebKit/537.36 (KHTML, like Gecko) Chrome/85.0.4183.121 Safari/537.36",73,"[0.9, 0.5, 0.1]","[0.8, 0.4, 0.2]","[u'blue', u'red', u'black']","[u'left', u'middle', u'right']","[0.9, 0.5, 0.1]","[u'low', u'high', u'medium']","red",50,"middle","high","True","False",374,5200,NA
"AP26GRD3QSPRP","Sat Oct 03 2020 16:30:27 GMT-0500 (Central Daylight Time)","Sat Oct 03 2020 16:36:29 GMT-0500 (Central Daylight Time)","Mozilla/5.0 (Macintosh; Intel Mac OS X 10_15_7) AppleWebKit/537.36 (KHTML, like Gecko) Chrome/85.0.4183.121 Safari/537.36",74,"[0.9, 0.5, 0.1]","[0.8, 0.4, 0.2]","[u'blue', u'red', u'black']","[u'left', u'middle', u'right']","[0.9, 0.5, 0.1]","[u'low', u'high', u'medium']","red",50,"middle","high","True","False",299,5300,NA
"AP26GRD3QSPRP","Sat Oct 03 2020 16:30:27 GMT-0500 (Central Daylight Time)","Sat Oct 03 2020 16:36:29 GMT-0500 (Central Daylight Time)","Mozilla/5.0 (Macintosh; Intel Mac OS X 10_15_7) AppleWebKit/537.36 (KHTML, like Gecko) Chrome/85.0.4183.121 Safari/537.36",75,"[0.9, 0.5, 0.1]","[0.8, 0.4, 0.2]","[u'blue', u'red', u'black']","[u'left', u'middle', u'right']","[0.9, 0.5, 0.1]","[u'low', u'high', u'medium']","red",50,"middle","high","True","True",494,5400,NA
"AP26GRD3QSPRP","Sat Oct 03 2020 16:30:27 GMT-0500 (Central Daylight Time)","Sat Oct 03 2020 16:36:29 GMT-0500 (Central Daylight Time)","Mozilla/5.0 (Macintosh; Intel Mac OS X 10_15_7) AppleWebKit/537.36 (KHTML, like Gecko) Chrome/85.0.4183.121 Safari/537.36",76,"[0.9, 0.5, 0.1]","[0.8, 0.4, 0.2]","[u'blue', u'red', u'black']","[u'left', u'middle', u'right']","[0.9, 0.5, 0.1]","[u'low', u'medium', u'high']","red",50,"middle","medium","True","False",429,5500,NA
"AP26GRD3QSPRP","Sat Oct 03 2020 16:30:27 GMT-0500 (Central Daylight Time)","Sat Oct 03 2020 16:36:29 GMT-0500 (Central Daylight Time)","Mozilla/5.0 (Macintosh; Intel Mac OS X 10_15_7) AppleWebKit/537.36 (KHTML, like Gecko) Chrome/85.0.4183.121 Safari/537.36",77,"[0.9, 0.5, 0.1]","[0.8, 0.4, 0.2]","[u'blue', u'red', u'black']","[u'left', u'middle', u'right']","[0.9, 0.5, 0.1]","[u'low', u'medium', u'high']","red",50,"middle","medium","False","False",385,5450,NA
"AP26GRD3QSPRP","Sat Oct 03 2020 16:30:27 GMT-0500 (Central Daylight Time)","Sat Oct 03 2020 16:36:29 GMT-0500 (Central Daylight Time)","Mozilla/5.0 (Macintosh; Intel Mac OS X 10_15_7) AppleWebKit/537.36 (KHTML, like Gecko) Chrome/85.0.4183.121 Safari/537.36",78,"[0.9, 0.5, 0.1]","[0.8, 0.4, 0.2]","[u'blue', u'red', u'black']","[u'left', u'middle', u'right']","[0.9, 0.5, 0.1]","[u'low', u'medium', u'high']","black",51,"right","high","False","False",297,5400,NA
"AP26GRD3QSPRP","Sat Oct 03 2020 16:30:27 GMT-0500 (Central Daylight Time)","Sat Oct 03 2020 16:36:29 GMT-0500 (Central Daylight Time)","Mozilla/5.0 (Macintosh; Intel Mac OS X 10_15_7) AppleWebKit/537.36 (KHTML, like Gecko) Chrome/85.0.4183.121 Safari/537.36",79,"[0.9, 0.5, 0.1]","[0.8, 0.4, 0.2]","[u'blue', u'red', u'black']","[u'left', u'middle', u'right']","[0.9, 0.5, 0.1]","[u'low', u'medium', u'high']","blue",49,"left","low","False","False",249,5350,NA
"AP26GRD3QSPRP","Sat Oct 03 2020 16:30:27 GMT-0500 (Central Daylight Time)","Sat Oct 03 2020 16:36:29 GMT-0500 (Central Daylight Time)","Mozilla/5.0 (Macintosh; Intel Mac OS X 10_15_7) AppleWebKit/537.36 (KHTML, like Gecko) Chrome/85.0.4183.121 Safari/537.36",80,"[0.9, 0.5, 0.1]","[0.8, 0.4, 0.2]","[u'blue', u'red', u'black']","[u'left', u'middle', u'right']","[0.9, 0.5, 0.1]","[u'low', u'medium', u'high']","red",50,"middle","medium","False","False",417,5300,NA
"AP26GRD3QSPRP","Sat Oct 03 2020 16:30:27 GMT-0500 (Central Daylight Time)","Sat Oct 03 2020 16:36:29 GMT-0500 (Central Daylight Time)","Mozilla/5.0 (Macintosh; Intel Mac OS X 10_15_7) AppleWebKit/537.36 (KHTML, like Gecko) Chrome/85.0.4183.121 Safari/537.36",81,"[0.9, 0.5, 0.1]","[0.8, 0.4, 0.2]","[u'blue', u'red', u'black']","[u'left', u'middle', u'right']","[0.8, 0.4, 0.2]","[u'high', u'medium', u'low']","blue",49,"left","high","True","False",940,5400,NA
"AP26GRD3QSPRP","Sat Oct 03 2020 16:30:27 GMT-0500 (Central Daylight Time)","Sat Oct 03 2020 16:36:29 GMT-0500 (Central Daylight Time)","Mozilla/5.0 (Macintosh; Intel Mac OS X 10_15_7) AppleWebKit/537.36 (KHTML, like Gecko) Chrome/85.0.4183.121 Safari/537.36",82,"[0.9, 0.5, 0.1]","[0.8, 0.4, 0.2]","[u'blue', u'red', u'black']","[u'left', u'middle', u'right']","[0.8, 0.4, 0.2]","[u'high', u'medium', u'low']","blue",49,"left","high","True","False",495,5500,NA
"AP26GRD3QSPRP","Sat Oct 03 2020 16:30:27 GMT-0500 (Central Daylight Time)","Sat Oct 03 2020 16:36:29 GMT-0500 (Central Daylight Time)","Mozilla/5.0 (Macintosh; Intel Mac OS X 10_15_7) AppleWebKit/537.36 (KHTML, like Gecko) Chrome/85.0.4183.121 Safari/537.36",83,"[0.9, 0.5, 0.1]","[0.8, 0.4, 0.2]","[u'blue', u'red', u'black']","[u'left', u'middle', u'right']","[0.8, 0.4, 0.2]","[u'high', u'medium', u'low']","black",51,"right","low","False","False",535,5450,NA
"AP26GRD3QSPRP","Sat Oct 03 2020 16:30:27 GMT-0500 (Central Daylight Time)","Sat Oct 03 2020 16:36:29 GMT-0500 (Central Daylight Time)","Mozilla/5.0 (Macintosh; Intel Mac OS X 10_15_7) AppleWebKit/537.36 (KHTML, like Gecko) Chrome/85.0.4183.121 Safari/537.36",84,"[0.9, 0.5, 0.1]","[0.8, 0.4, 0.2]","[u'blue', u'red', u'black']","[u'left', u'middle', u'right']","[0.8, 0.4, 0.2]","[u'high', u'medium', u'low']","red",50,"middle","medium","False","False",342,5400,NA
"AP26GRD3QSPRP","Sat Oct 03 2020 16:30:27 GMT-0500 (Central Daylight Time)","Sat Oct 03 2020 16:36:29 GMT-0500 (Central Daylight Time)","Mozilla/5.0 (Macintosh; Intel Mac OS X 10_15_7) AppleWebKit/537.36 (KHTML, like Gecko) Chrome/85.0.4183.121 Safari/537.36",85,"[0.9, 0.5, 0.1]","[0.8, 0.4, 0.2]","[u'blue', u'red', u'black']","[u'left', u'middle', u'right']","[0.8, 0.4, 0.2]","[u'high', u'medium', u'low']","blue",49,"left","high","False","False",387,5350,NA
"AP26GRD3QSPRP","Sat Oct 03 2020 16:30:27 GMT-0500 (Central Daylight Time)","Sat Oct 03 2020 16:36:29 GMT-0500 (Central Daylight Time)","Mozilla/5.0 (Macintosh; Intel Mac OS X 10_15_7) AppleWebKit/537.36 (KHTML, like Gecko) Chrome/85.0.4183.121 Safari/537.36",86,"[0.9, 0.5, 0.1]","[0.8, 0.4, 0.2]","[u'blue', u'red', u'black']","[u'left', u'middle', u'right']","[0.8, 0.4, 0.2]","[u'high', u'medium', u'low']","red",50,"middle","medium","False","False",370,5300,NA
"AP26GRD3QSPRP","Sat Oct 03 2020 16:30:27 GMT-0500 (Central Daylight Time)","Sat Oct 03 2020 16:36:29 GMT-0500 (Central Daylight Time)","Mozilla/5.0 (Macintosh; Intel Mac OS X 10_15_7) AppleWebKit/537.36 (KHTML, like Gecko) Chrome/85.0.4183.121 Safari/537.36",87,"[0.9, 0.5, 0.1]","[0.8, 0.4, 0.2]","[u'blue', u'red', u'black']","[u'left', u'middle', u'right']","[0.8, 0.4, 0.2]","[u'high', u'medium', u'low']","blue",49,"left","high","True","False",265,5400,NA
"AP26GRD3QSPRP","Sat Oct 03 2020 16:30:27 GMT-0500 (Central Daylight Time)","Sat Oct 03 2020 16:36:29 GMT-0500 (Central Daylight Time)","Mozilla/5.0 (Macintosh; Intel Mac OS X 10_15_7) AppleWebKit/537.36 (KHTML, like Gecko) Chrome/85.0.4183.121 Safari/537.36",88,"[0.9, 0.5, 0.1]","[0.8, 0.4, 0.2]","[u'blue', u'red', u'black']","[u'left', u'middle', u'right']","[0.8, 0.4, 0.2]","[u'high', u'medium', u'low']","blue",49,"left","high","True","False",344,5500,NA
"AP26GRD3QSPRP","Sat Oct 03 2020 16:30:27 GMT-0500 (Central Daylight Time)","Sat Oct 03 2020 16:36:29 GMT-0500 (Central Daylight Time)","Mozilla/5.0 (Macintosh; Intel Mac OS X 10_15_7) AppleWebKit/537.36 (KHTML, like Gecko) Chrome/85.0.4183.121 Safari/537.36",89,"[0.9, 0.5, 0.1]","[0.8, 0.4, 0.2]","[u'blue', u'red', u'black']","[u'left', u'middle', u'right']","[0.8, 0.4, 0.2]","[u'high', u'medium', u'low']","blue",49,"left","high","True","False",264,5600,NA
"AP26GRD3QSPRP","Sat Oct 03 2020 16:30:27 GMT-0500 (Central Daylight Time)","Sat Oct 03 2020 16:36:29 GMT-0500 (Central Daylight Time)","Mozilla/5.0 (Macintosh; Intel Mac OS X 10_15_7) AppleWebKit/537.36 (KHTML, like Gecko) Chrome/85.0.4183.121 Safari/537.36",90,"[0.9, 0.5, 0.1]","[0.8, 0.4, 0.2]","[u'blue', u'red', u'black']","[u'left', u'middle', u'right']","[0.8, 0.4, 0.2]","[u'high', u'medium', u'low']","blue",49,"left","high","True","False",267,5700,NA
"AP26GRD3QSPRP","Sat Oct 03 2020 16:30:27 GMT-0500 (Central Daylight Time)","Sat Oct 03 2020 16:36:29 GMT-0500 (Central Daylight Time)","Mozilla/5.0 (Macintosh; Intel Mac OS X 10_15_7) AppleWebKit/537.36 (KHTML, like Gecko) Chrome/85.0.4183.121 Safari/537.36",91,"[0.9, 0.5, 0.1]","[0.8, 0.4, 0.2]","[u'blue', u'red', u'black']","[u'left', u'middle', u'right']","[0.8, 0.4, 0.2]","[u'high', u'medium', u'low']","blue",49,"left","high","True","False",269,5800,NA
"AP26GRD3QSPRP","Sat Oct 03 2020 16:30:27 GMT-0500 (Central Daylight Time)","Sat Oct 03 2020 16:36:29 GMT-0500 (Central Daylight Time)","Mozilla/5.0 (Macintosh; Intel Mac OS X 10_15_7) AppleWebKit/537.36 (KHTML, like Gecko) Chrome/85.0.4183.121 Safari/537.36",92,"[0.9, 0.5, 0.1]","[0.8, 0.4, 0.2]","[u'blue', u'red', u'black']","[u'left', u'middle', u'right']","[0.8, 0.4, 0.2]","[u'high', u'medium', u'low']","blue",49,"left","high","True","False",385,5900,NA
"AP26GRD3QSPRP","Sat Oct 03 2020 16:30:27 GMT-0500 (Central Daylight Time)","Sat Oct 03 2020 16:36:29 GMT-0500 (Central Daylight Time)","Mozilla/5.0 (Macintosh; Intel Mac OS X 10_15_7) AppleWebKit/537.36 (KHTML, like Gecko) Chrome/85.0.4183.121 Safari/537.36",93,"[0.9, 0.5, 0.1]","[0.8, 0.4, 0.2]","[u'blue', u'red', u'black']","[u'left', u'middle', u'right']","[0.8, 0.4, 0.2]","[u'high', u'medium', u'low']","blue",49,"left","high","True","False",164,6000,NA
"AP26GRD3QSPRP","Sat Oct 03 2020 16:30:27 GMT-0500 (Central Daylight Time)","Sat Oct 03 2020 16:36:29 GMT-0500 (Central Daylight Time)","Mozilla/5.0 (Macintosh; Intel Mac OS X 10_15_7) AppleWebKit/537.36 (KHTML, like Gecko) Chrome/85.0.4183.121 Safari/537.36",94,"[0.9, 0.5, 0.1]","[0.8, 0.4, 0.2]","[u'blue', u'red', u'black']","[u'left', u'middle', u'right']","[0.8, 0.4, 0.2]","[u'high', u'medium', u'low']","blue",49,"left","high","True","True",161,6100,NA
"AP26GRD3QSPRP","Sat Oct 03 2020 16:30:27 GMT-0500 (Central Daylight Time)","Sat Oct 03 2020 16:36:29 GMT-0500 (Central Daylight Time)","Mozilla/5.0 (Macintosh; Intel Mac OS X 10_15_7) AppleWebKit/537.36 (KHTML, like Gecko) Chrome/85.0.4183.121 Safari/537.36",95,"[0.9, 0.5, 0.1]","[0.8, 0.4, 0.2]","[u'blue', u'red', u'black']","[u'left', u'middle', u'right']","[0.8, 0.4, 0.2]","[u'low', u'high', u'medium']","blue",49,"left","low","False","False",296,6050,NA
"AP26GRD3QSPRP","Sat Oct 03 2020 16:30:27 GMT-0500 (Central Daylight Time)","Sat Oct 03 2020 16:36:29 GMT-0500 (Central Daylight Time)","Mozilla/5.0 (Macintosh; Intel Mac OS X 10_15_7) AppleWebKit/537.36 (KHTML, like Gecko) Chrome/85.0.4183.121 Safari/537.36",96,"[0.9, 0.5, 0.1]","[0.8, 0.4, 0.2]","[u'blue', u'red', u'black']","[u'left', u'middle', u'right']","[0.8, 0.4, 0.2]","[u'low', u'high', u'medium']","black",51,"right","medium","False","False",507,6000,NA
"AP26GRD3QSPRP","Sat Oct 03 2020 16:30:27 GMT-0500 (Central Daylight Time)","Sat Oct 03 2020 16:36:29 GMT-0500 (Central Daylight Time)","Mozilla/5.0 (Macintosh; Intel Mac OS X 10_15_7) AppleWebKit/537.36 (KHTML, like Gecko) Chrome/85.0.4183.121 Safari/537.36",97,"[0.9, 0.5, 0.1]","[0.8, 0.4, 0.2]","[u'blue', u'red', u'black']","[u'left', u'middle', u'right']","[0.8, 0.4, 0.2]","[u'low', u'high', u'medium']","red",50,"middle","high","True","False",254,6100,NA
"AP26GRD3QSPRP","Sat Oct 03 2020 16:30:27 GMT-0500 (Central Daylight Time)","Sat Oct 03 2020 16:36:29 GMT-0500 (Central Daylight Time)","Mozilla/5.0 (Macintosh; Intel Mac OS X 10_15_7) AppleWebKit/537.36 (KHTML, like Gecko) Chrome/85.0.4183.121 Safari/537.36",98,"[0.9, 0.5, 0.1]","[0.8, 0.4, 0.2]","[u'blue', u'red', u'black']","[u'left', u'middle', u'right']","[0.8, 0.4, 0.2]","[u'low', u'high', u'medium']","red",50,"middle","high","False","False",387,6050,NA
"AP26GRD3QSPRP","Sat Oct 03 2020 16:30:27 GMT-0500 (Central Daylight Time)","Sat Oct 03 2020 16:36:29 GMT-0500 (Central Daylight Time)","Mozilla/5.0 (Macintosh; Intel Mac OS X 10_15_7) AppleWebKit/537.36 (KHTML, like Gecko) Chrome/85.0.4183.121 Safari/537.36",99,"[0.9, 0.5, 0.1]","[0.8, 0.4, 0.2]","[u'blue', u'red', u'black']","[u'left', u'middle', u'right']","[0.8, 0.4, 0.2]","[u'low', u'high', u'medium']","blue",49,"left","low","True","False",311,6150,NA
"AP26GRD3QSPRP","Sat Oct 03 2020 16:30:27 GMT-0500 (Central Daylight Time)","Sat Oct 03 2020 16:36:29 GMT-0500 (Central Daylight Time)","Mozilla/5.0 (Macintosh; Intel Mac OS X 10_15_7) AppleWebKit/537.36 (KHTML, like Gecko) Chrome/85.0.4183.121 Safari/537.36",100,"[0.9, 0.5, 0.1]","[0.8, 0.4, 0.2]","[u'blue', u'red', u'black']","[u'left', u'middle', u'right']","[0.8, 0.4, 0.2]","[u'low', u'high', u'medium']","blue",49,"left","low","False","False",344,6100,NA
"AP26GRD3QSPRP","Sat Oct 03 2020 16:30:27 GMT-0500 (Central Daylight Time)","Sat Oct 03 2020 16:36:29 GMT-0500 (Central Daylight Time)","Mozilla/5.0 (Macintosh; Intel Mac OS X 10_15_7) AppleWebKit/537.36 (KHTML, like Gecko) Chrome/85.0.4183.121 Safari/537.36",101,"[0.9, 0.5, 0.1]","[0.8, 0.4, 0.2]","[u'blue', u'red', u'black']","[u'left', u'middle', u'right']","[0.8, 0.4, 0.2]","[u'low', u'high', u'medium']","red",50,"middle","high","False","False",610,6050,NA
"AP26GRD3QSPRP","Sat Oct 03 2020 16:30:27 GMT-0500 (Central Daylight Time)","Sat Oct 03 2020 16:36:29 GMT-0500 (Central Daylight Time)","Mozilla/5.0 (Macintosh; Intel Mac OS X 10_15_7) AppleWebKit/537.36 (KHTML, like Gecko) Chrome/85.0.4183.121 Safari/537.36",102,"[0.9, 0.5, 0.1]","[0.8, 0.4, 0.2]","[u'blue', u'red', u'black']","[u'left', u'middle', u'right']","[0.8, 0.4, 0.2]","[u'low', u'high', u'medium']","blue",49,"left","low","True","False",475,6150,NA
"AP26GRD3QSPRP","Sat Oct 03 2020 16:30:27 GMT-0500 (Central Daylight Time)","Sat Oct 03 2020 16:36:29 GMT-0500 (Central Daylight Time)","Mozilla/5.0 (Macintosh; Intel Mac OS X 10_15_7) AppleWebKit/537.36 (KHTML, like Gecko) Chrome/85.0.4183.121 Safari/537.36",103,"[0.9, 0.5, 0.1]","[0.8, 0.4, 0.2]","[u'blue', u'red', u'black']","[u'left', u'middle', u'right']","[0.8, 0.4, 0.2]","[u'low', u'high', u'medium']","blue",49,"left","low","False","False",282,6100,NA
"AP26GRD3QSPRP","Sat Oct 03 2020 16:30:27 GMT-0500 (Central Daylight Time)","Sat Oct 03 2020 16:36:29 GMT-0500 (Central Daylight Time)","Mozilla/5.0 (Macintosh; Intel Mac OS X 10_15_7) AppleWebKit/537.36 (KHTML, like Gecko) Chrome/85.0.4183.121 Safari/537.36",104,"[0.9, 0.5, 0.1]","[0.8, 0.4, 0.2]","[u'blue', u'red', u'black']","[u'left', u'middle', u'right']","[0.8, 0.4, 0.2]","[u'low', u'high', u'medium']","black",51,"right","medium","False","False",89,6050,NA
"AP26GRD3QSPRP","Sat Oct 03 2020 16:30:27 GMT-0500 (Central Daylight Time)","Sat Oct 03 2020 16:36:29 GMT-0500 (Central Daylight Time)","Mozilla/5.0 (Macintosh; Intel Mac OS X 10_15_7) AppleWebKit/537.36 (KHTML, like Gecko) Chrome/85.0.4183.121 Safari/537.36",105,"[0.9, 0.5, 0.1]","[0.8, 0.4, 0.2]","[u'blue', u'red', u'black']","[u'left', u'middle', u'right']","[0.8, 0.4, 0.2]","[u'low', u'high', u'medium']","blue",49,"left","low","True","False",357,6150,NA
"AP26GRD3QSPRP","Sat Oct 03 2020 16:30:27 GMT-0500 (Central Daylight Time)","Sat Oct 03 2020 16:36:29 GMT-0500 (Central Daylight Time)","Mozilla/5.0 (Macintosh; Intel Mac OS X 10_15_7) AppleWebKit/537.36 (KHTML, like Gecko) Chrome/85.0.4183.121 Safari/537.36",106,"[0.9, 0.5, 0.1]","[0.8, 0.4, 0.2]","[u'blue', u'red', u'black']","[u'left', u'middle', u'right']","[0.8, 0.4, 0.2]","[u'low', u'high', u'medium']","blue",49,"left","low","False","False",225,6100,NA
"AP26GRD3QSPRP","Sat Oct 03 2020 16:30:27 GMT-0500 (Central Daylight Time)","Sat Oct 03 2020 16:36:29 GMT-0500 (Central Daylight Time)","Mozilla/5.0 (Macintosh; Intel Mac OS X 10_15_7) AppleWebKit/537.36 (KHTML, like Gecko) Chrome/85.0.4183.121 Safari/537.36",107,"[0.9, 0.5, 0.1]","[0.8, 0.4, 0.2]","[u'blue', u'red', u'black']","[u'left', u'middle', u'right']","[0.8, 0.4, 0.2]","[u'low', u'high', u'medium']","red",50,"middle","high","True","False",219,6200,NA
"AP26GRD3QSPRP","Sat Oct 03 2020 16:30:27 GMT-0500 (Central Daylight Time)","Sat Oct 03 2020 16:36:29 GMT-0500 (Central Daylight Time)","Mozilla/5.0 (Macintosh; Intel Mac OS X 10_15_7) AppleWebKit/537.36 (KHTML, like Gecko) Chrome/85.0.4183.121 Safari/537.36",108,"[0.9, 0.5, 0.1]","[0.8, 0.4, 0.2]","[u'blue', u'red', u'black']","[u'left', u'middle', u'right']","[0.8, 0.4, 0.2]","[u'low', u'high', u'medium']","blue",49,"left","low","True","False",281,6300,NA
"AP26GRD3QSPRP","Sat Oct 03 2020 16:30:27 GMT-0500 (Central Daylight Time)","Sat Oct 03 2020 16:36:29 GMT-0500 (Central Daylight Time)","Mozilla/5.0 (Macintosh; Intel Mac OS X 10_15_7) AppleWebKit/537.36 (KHTML, like Gecko) Chrome/85.0.4183.121 Safari/537.36",109,"[0.9, 0.5, 0.1]","[0.8, 0.4, 0.2]","[u'blue', u'red', u'black']","[u'left', u'middle', u'right']","[0.8, 0.4, 0.2]","[u'low', u'high', u'medium']","black",51,"right","medium","False","False",355,6250,NA
"AP26GRD3QSPRP","Sat Oct 03 2020 16:30:27 GMT-0500 (Central Daylight Time)","Sat Oct 03 2020 16:36:29 GMT-0500 (Central Daylight Time)","Mozilla/5.0 (Macintosh; Intel Mac OS X 10_15_7) AppleWebKit/537.36 (KHTML, like Gecko) Chrome/85.0.4183.121 Safari/537.36",110,"[0.9, 0.5, 0.1]","[0.8, 0.4, 0.2]","[u'blue', u'red', u'black']","[u'left', u'middle', u'right']","[0.8, 0.4, 0.2]","[u'low', u'high', u'medium']","red",50,"middle","high","True","False",402,6350,NA
"AP26GRD3QSPRP","Sat Oct 03 2020 16:30:27 GMT-0500 (Central Daylight Time)","Sat Oct 03 2020 16:36:29 GMT-0500 (Central Daylight Time)","Mozilla/5.0 (Macintosh; Intel Mac OS X 10_15_7) AppleWebKit/537.36 (KHTML, like Gecko) Chrome/85.0.4183.121 Safari/537.36",111,"[0.9, 0.5, 0.1]","[0.8, 0.4, 0.2]","[u'blue', u'red', u'black']","[u'left', u'middle', u'right']","[0.8, 0.4, 0.2]","[u'low', u'high', u'medium']","black",51,"right","medium","True","False",118,6450,NA
"AP26GRD3QSPRP","Sat Oct 03 2020 16:30:27 GMT-0500 (Central Daylight Time)","Sat Oct 03 2020 16:36:29 GMT-0500 (Central Daylight Time)","Mozilla/5.0 (Macintosh; Intel Mac OS X 10_15_7) AppleWebKit/537.36 (KHTML, like Gecko) Chrome/85.0.4183.121 Safari/537.36",112,"[0.9, 0.5, 0.1]","[0.8, 0.4, 0.2]","[u'blue', u'red', u'black']","[u'left', u'middle', u'right']","[0.8, 0.4, 0.2]","[u'low', u'high', u'medium']","blue",49,"left","low","False","False",253,6400,NA
"AP26GRD3QSPRP","Sat Oct 03 2020 16:30:27 GMT-0500 (Central Daylight Time)","Sat Oct 03 2020 16:36:29 GMT-0500 (Central Daylight Time)","Mozilla/5.0 (Macintosh; Intel Mac OS X 10_15_7) AppleWebKit/537.36 (KHTML, like Gecko) Chrome/85.0.4183.121 Safari/537.36",113,"[0.9, 0.5, 0.1]","[0.8, 0.4, 0.2]","[u'blue', u'red', u'black']","[u'left', u'middle', u'right']","[0.8, 0.4, 0.2]","[u'low', u'high', u'medium']","red",50,"middle","high","True","False",144,6500,NA
"AP26GRD3QSPRP","Sat Oct 03 2020 16:30:27 GMT-0500 (Central Daylight Time)","Sat Oct 03 2020 16:36:29 GMT-0500 (Central Daylight Time)","Mozilla/5.0 (Macintosh; Intel Mac OS X 10_15_7) AppleWebKit/537.36 (KHTML, like Gecko) Chrome/85.0.4183.121 Safari/537.36",114,"[0.9, 0.5, 0.1]","[0.8, 0.4, 0.2]","[u'blue', u'red', u'black']","[u'left', u'middle', u'right']","[0.8, 0.4, 0.2]","[u'low', u'high', u'medium']","black",51,"right","medium","True","False",133,6600,NA
"AP26GRD3QSPRP","Sat Oct 03 2020 16:30:27 GMT-0500 (Central Daylight Time)","Sat Oct 03 2020 16:36:29 GMT-0500 (Central Daylight Time)","Mozilla/5.0 (Macintosh; Intel Mac OS X 10_15_7) AppleWebKit/537.36 (KHTML, like Gecko) Chrome/85.0.4183.121 Safari/537.36",115,"[0.9, 0.5, 0.1]","[0.8, 0.4, 0.2]","[u'blue', u'red', u'black']","[u'left', u'middle', u'right']","[0.8, 0.4, 0.2]","[u'low', u'high', u'medium']","blue",49,"left","low","False","False",180,6550,NA
"AP26GRD3QSPRP","Sat Oct 03 2020 16:30:27 GMT-0500 (Central Daylight Time)","Sat Oct 03 2020 16:36:29 GMT-0500 (Central Daylight Time)","Mozilla/5.0 (Macintosh; Intel Mac OS X 10_15_7) AppleWebKit/537.36 (KHTML, like Gecko) Chrome/85.0.4183.121 Safari/537.36",116,"[0.9, 0.5, 0.1]","[0.8, 0.4, 0.2]","[u'blue', u'red', u'black']","[u'left', u'middle', u'right']","[0.8, 0.4, 0.2]","[u'low', u'high', u'medium']","black",51,"right","medium","True","False",44,6650,NA
"AP26GRD3QSPRP","Sat Oct 03 2020 16:30:27 GMT-0500 (Central Daylight Time)","Sat Oct 03 2020 16:36:29 GMT-0500 (Central Daylight Time)","Mozilla/5.0 (Macintosh; Intel Mac OS X 10_15_7) AppleWebKit/537.36 (KHTML, like Gecko) Chrome/85.0.4183.121 Safari/537.36",117,"[0.9, 0.5, 0.1]","[0.8, 0.4, 0.2]","[u'blue', u'red', u'black']","[u'left', u'middle', u'right']","[0.8, 0.4, 0.2]","[u'low', u'high', u'medium']","red",50,"middle","high","False","False",160,6600,NA
"AP26GRD3QSPRP","Sat Oct 03 2020 16:30:27 GMT-0500 (Central Daylight Time)","Sat Oct 03 2020 16:36:29 GMT-0500 (Central Daylight Time)","Mozilla/5.0 (Macintosh; Intel Mac OS X 10_15_7) AppleWebKit/537.36 (KHTML, like Gecko) Chrome/85.0.4183.121 Safari/537.36",118,"[0.9, 0.5, 0.1]","[0.8, 0.4, 0.2]","[u'blue', u'red', u'black']","[u'left', u'middle', u'right']","[0.8, 0.4, 0.2]","[u'low', u'high', u'medium']","blue",49,"left","low","False","False",252,6550,NA
"AP26GRD3QSPRP","Sat Oct 03 2020 16:30:27 GMT-0500 (Central Daylight Time)","Sat Oct 03 2020 16:36:29 GMT-0500 (Central Daylight Time)","Mozilla/5.0 (Macintosh; Intel Mac OS X 10_15_7) AppleWebKit/537.36 (KHTML, like Gecko) Chrome/85.0.4183.121 Safari/537.36",119,"[0.9, 0.5, 0.1]","[0.8, 0.4, 0.2]","[u'blue', u'red', u'black']","[u'left', u'middle', u'right']","[0.8, 0.4, 0.2]","[u'low', u'high', u'medium']","red",50,"middle","high","True","False",120,6650,NA
"AP26GRD3QSPRP","Sat Oct 03 2020 16:30:27 GMT-0500 (Central Daylight Time)","Sat Oct 03 2020 16:36:29 GMT-0500 (Central Daylight Time)","Mozilla/5.0 (Macintosh; Intel Mac OS X 10_15_7) AppleWebKit/537.36 (KHTML, like Gecko) Chrome/85.0.4183.121 Safari/537.36",120,"[0.9, 0.5, 0.1]","[0.8, 0.4, 0.2]","[u'blue', u'red', u'black']","[u'left', u'middle', u'right']","[0.8, 0.4, 0.2]","[u'low', u'high', u'medium']","black",51,"right","medium","False","False",99,6600,NA
"AP26GRD3QSPRP","Sat Oct 03 2020 16:30:27 GMT-0500 (Central Daylight Time)","Sat Oct 03 2020 16:36:29 GMT-0500 (Central Daylight Time)","Mozilla/5.0 (Macintosh; Intel Mac OS X 10_15_7) AppleWebKit/537.36 (KHTML, like Gecko) Chrome/85.0.4183.121 Safari/537.36",121,"[0.9, 0.5, 0.1]","[0.8, 0.4, 0.2]","[u'blue', u'red', u'black']","[u'left', u'middle', u'right']","[0.8, 0.4, 0.2]","[u'high', u'medium', u'low']","blue",49,"left","high","True","False",308,6700,NA
"AP26GRD3QSPRP","Sat Oct 03 2020 16:30:27 GMT-0500 (Central Daylight Time)","Sat Oct 03 2020 16:36:29 GMT-0500 (Central Daylight Time)","Mozilla/5.0 (Macintosh; Intel Mac OS X 10_15_7) AppleWebKit/537.36 (KHTML, like Gecko) Chrome/85.0.4183.121 Safari/537.36",122,"[0.9, 0.5, 0.1]","[0.8, 0.4, 0.2]","[u'blue', u'red', u'black']","[u'left', u'middle', u'right']","[0.8, 0.4, 0.2]","[u'high', u'medium', u'low']","red",50,"middle","medium","True","False",295,6800,NA
"AP26GRD3QSPRP","Sat Oct 03 2020 16:30:27 GMT-0500 (Central Daylight Time)","Sat Oct 03 2020 16:36:29 GMT-0500 (Central Daylight Time)","Mozilla/5.0 (Macintosh; Intel Mac OS X 10_15_7) AppleWebKit/537.36 (KHTML, like Gecko) Chrome/85.0.4183.121 Safari/537.36",123,"[0.9, 0.5, 0.1]","[0.8, 0.4, 0.2]","[u'blue', u'red', u'black']","[u'left', u'middle', u'right']","[0.8, 0.4, 0.2]","[u'high', u'medium', u'low']","black",51,"right","low","False","False",54,6750,NA
"AP26GRD3QSPRP","Sat Oct 03 2020 16:30:27 GMT-0500 (Central Daylight Time)","Sat Oct 03 2020 16:36:29 GMT-0500 (Central Daylight Time)","Mozilla/5.0 (Macintosh; Intel Mac OS X 10_15_7) AppleWebKit/537.36 (KHTML, like Gecko) Chrome/85.0.4183.121 Safari/537.36",124,"[0.9, 0.5, 0.1]","[0.8, 0.4, 0.2]","[u'blue', u'red', u'black']","[u'left', u'middle', u'right']","[0.8, 0.4, 0.2]","[u'high', u'medium', u'low']","red",50,"middle","medium","True","False",205,6850,NA
"AP26GRD3QSPRP","Sat Oct 03 2020 16:30:27 GMT-0500 (Central Daylight Time)","Sat Oct 03 2020 16:36:29 GMT-0500 (Central Daylight Time)","Mozilla/5.0 (Macintosh; Intel Mac OS X 10_15_7) AppleWebKit/537.36 (KHTML, like Gecko) Chrome/85.0.4183.121 Safari/537.36",125,"[0.9, 0.5, 0.1]","[0.8, 0.4, 0.2]","[u'blue', u'red', u'black']","[u'left', u'middle', u'right']","[0.8, 0.4, 0.2]","[u'high', u'medium', u'low']","red",50,"middle","medium","False","False",491,6800,NA
"AP26GRD3QSPRP","Sat Oct 03 2020 16:30:27 GMT-0500 (Central Daylight Time)","Sat Oct 03 2020 16:36:29 GMT-0500 (Central Daylight Time)","Mozilla/5.0 (Macintosh; Intel Mac OS X 10_15_7) AppleWebKit/537.36 (KHTML, like Gecko) Chrome/85.0.4183.121 Safari/537.36",126,"[0.9, 0.5, 0.1]","[0.8, 0.4, 0.2]","[u'blue', u'red', u'black']","[u'left', u'middle', u'right']","[0.8, 0.4, 0.2]","[u'high', u'medium', u'low']","black",51,"right","low","False","False",224,6750,NA
"AP26GRD3QSPRP","Sat Oct 03 2020 16:30:27 GMT-0500 (Central Daylight Time)","Sat Oct 03 2020 16:36:29 GMT-0500 (Central Daylight Time)","Mozilla/5.0 (Macintosh; Intel Mac OS X 10_15_7) AppleWebKit/537.36 (KHTML, like Gecko) Chrome/85.0.4183.121 Safari/537.36",127,"[0.9, 0.5, 0.1]","[0.8, 0.4, 0.2]","[u'blue', u'red', u'black']","[u'left', u'middle', u'right']","[0.8, 0.4, 0.2]","[u'high', u'medium', u'low']","blue",49,"left","high","True","False",160,6850,NA
"AP26GRD3QSPRP","Sat Oct 03 2020 16:30:27 GMT-0500 (Central Daylight Time)","Sat Oct 03 2020 16:36:29 GMT-0500 (Central Daylight Time)","Mozilla/5.0 (Macintosh; Intel Mac OS X 10_15_7) AppleWebKit/537.36 (KHTML, like Gecko) Chrome/85.0.4183.121 Safari/537.36",128,"[0.9, 0.5, 0.1]","[0.8, 0.4, 0.2]","[u'blue', u'red', u'black']","[u'left', u'middle', u'right']","[0.8, 0.4, 0.2]","[u'high', u'medium', u'low']","red",50,"middle","medium","False","False",219,6800,NA
"AP26GRD3QSPRP","Sat Oct 03 2020 16:30:27 GMT-0500 (Central Daylight Time)","Sat Oct 03 2020 16:36:29 GMT-0500 (Central Daylight Time)","Mozilla/5.0 (Macintosh; Intel Mac OS X 10_15_7) AppleWebKit/537.36 (KHTML, like Gecko) Chrome/85.0.4183.121 Safari/537.36",129,"[0.9, 0.5, 0.1]","[0.8, 0.4, 0.2]","[u'blue', u'red', u'black']","[u'left', u'middle', u'right']","[0.8, 0.4, 0.2]","[u'high', u'medium', u'low']","blue",49,"left","high","True","False",148,6900,NA
"AP26GRD3QSPRP","Sat Oct 03 2020 16:30:27 GMT-0500 (Central Daylight Time)","Sat Oct 03 2020 16:36:29 GMT-0500 (Central Daylight Time)","Mozilla/5.0 (Macintosh; Intel Mac OS X 10_15_7) AppleWebKit/537.36 (KHTML, like Gecko) Chrome/85.0.4183.121 Safari/537.36",130,"[0.9, 0.5, 0.1]","[0.8, 0.4, 0.2]","[u'blue', u'red', u'black']","[u'left', u'middle', u'right']","[0.8, 0.4, 0.2]","[u'high', u'medium', u'low']","blue",49,"left","high","True","False",163,7000,NA
"AP26GRD3QSPRP","Sat Oct 03 2020 16:30:27 GMT-0500 (Central Daylight Time)","Sat Oct 03 2020 16:36:29 GMT-0500 (Central Daylight Time)","Mozilla/5.0 (Macintosh; Intel Mac OS X 10_15_7) AppleWebKit/537.36 (KHTML, like Gecko) Chrome/85.0.4183.121 Safari/537.36",131,"[0.9, 0.5, 0.1]","[0.8, 0.4, 0.2]","[u'blue', u'red', u'black']","[u'left', u'middle', u'right']","[0.8, 0.4, 0.2]","[u'high', u'medium', u'low']","blue",49,"left","high","False","False",71,6950,NA
"AP26GRD3QSPRP","Sat Oct 03 2020 16:30:27 GMT-0500 (Central Daylight Time)","Sat Oct 03 2020 16:36:29 GMT-0500 (Central Daylight Time)","Mozilla/5.0 (Macintosh; Intel Mac OS X 10_15_7) AppleWebKit/537.36 (KHTML, like Gecko) Chrome/85.0.4183.121 Safari/537.36",132,"[0.9, 0.5, 0.1]","[0.8, 0.4, 0.2]","[u'blue', u'red', u'black']","[u'left', u'middle', u'right']","[0.8, 0.4, 0.2]","[u'high', u'medium', u'low']","red",50,"middle","medium","True","False",282,7050,NA
"AP26GRD3QSPRP","Sat Oct 03 2020 16:30:27 GMT-0500 (Central Daylight Time)","Sat Oct 03 2020 16:36:29 GMT-0500 (Central Daylight Time)","Mozilla/5.0 (Macintosh; Intel Mac OS X 10_15_7) AppleWebKit/537.36 (KHTML, like Gecko) Chrome/85.0.4183.121 Safari/537.36",133,"[0.9, 0.5, 0.1]","[0.8, 0.4, 0.2]","[u'blue', u'red', u'black']","[u'left', u'middle', u'right']","[0.8, 0.4, 0.2]","[u'high', u'medium', u'low']","red",50,"middle","medium","False","False",87,7000,NA
"AP26GRD3QSPRP","Sat Oct 03 2020 16:30:27 GMT-0500 (Central Daylight Time)","Sat Oct 03 2020 16:36:29 GMT-0500 (Central Daylight Time)","Mozilla/5.0 (Macintosh; Intel Mac OS X 10_15_7) AppleWebKit/537.36 (KHTML, like Gecko) Chrome/85.0.4183.121 Safari/537.36",134,"[0.9, 0.5, 0.1]","[0.8, 0.4, 0.2]","[u'blue', u'red', u'black']","[u'left', u'middle', u'right']","[0.8, 0.4, 0.2]","[u'high', u'medium', u'low']","blue",49,"left","high","True","False",161,7100,NA
"AP26GRD3QSPRP","Sat Oct 03 2020 16:30:27 GMT-0500 (Central Daylight Time)","Sat Oct 03 2020 16:36:29 GMT-0500 (Central Daylight Time)","Mozilla/5.0 (Macintosh; Intel Mac OS X 10_15_7) AppleWebKit/537.36 (KHTML, like Gecko) Chrome/85.0.4183.121 Safari/537.36",135,"[0.9, 0.5, 0.1]","[0.8, 0.4, 0.2]","[u'blue', u'red', u'black']","[u'left', u'middle', u'right']","[0.8, 0.4, 0.2]","[u'high', u'medium', u'low']","blue",49,"left","high","True","False",359,7200,NA
"AP26GRD3QSPRP","Sat Oct 03 2020 16:30:27 GMT-0500 (Central Daylight Time)","Sat Oct 03 2020 16:36:29 GMT-0500 (Central Daylight Time)","Mozilla/5.0 (Macintosh; Intel Mac OS X 10_15_7) AppleWebKit/537.36 (KHTML, like Gecko) Chrome/85.0.4183.121 Safari/537.36",136,"[0.9, 0.5, 0.1]","[0.8, 0.4, 0.2]","[u'blue', u'red', u'black']","[u'left', u'middle', u'right']","[0.8, 0.4, 0.2]","[u'high', u'medium', u'low']","blue",49,"left","high","True","False",146,7300,NA
"AP26GRD3QSPRP","Sat Oct 03 2020 16:30:27 GMT-0500 (Central Daylight Time)","Sat Oct 03 2020 16:36:29 GMT-0500 (Central Daylight Time)","Mozilla/5.0 (Macintosh; Intel Mac OS X 10_15_7) AppleWebKit/537.36 (KHTML, like Gecko) Chrome/85.0.4183.121 Safari/537.36",137,"[0.9, 0.5, 0.1]","[0.8, 0.4, 0.2]","[u'blue', u'red', u'black']","[u'left', u'middle', u'right']","[0.8, 0.4, 0.2]","[u'high', u'medium', u'low']","blue",49,"left","high","False","False",193,7250,NA
"AP26GRD3QSPRP","Sat Oct 03 2020 16:30:27 GMT-0500 (Central Daylight Time)","Sat Oct 03 2020 16:36:29 GMT-0500 (Central Daylight Time)","Mozilla/5.0 (Macintosh; Intel Mac OS X 10_15_7) AppleWebKit/537.36 (KHTML, like Gecko) Chrome/85.0.4183.121 Safari/537.36",138,"[0.9, 0.5, 0.1]","[0.8, 0.4, 0.2]","[u'blue', u'red', u'black']","[u'left', u'middle', u'right']","[0.8, 0.4, 0.2]","[u'high', u'medium', u'low']","black",51,"right","low","False","False",281,7200,NA
"AP26GRD3QSPRP","Sat Oct 03 2020 16:30:27 GMT-0500 (Central Daylight Time)","Sat Oct 03 2020 16:36:29 GMT-0500 (Central Daylight Time)","Mozilla/5.0 (Macintosh; Intel Mac OS X 10_15_7) AppleWebKit/537.36 (KHTML, like Gecko) Chrome/85.0.4183.121 Safari/537.36",139,"[0.9, 0.5, 0.1]","[0.8, 0.4, 0.2]","[u'blue', u'red', u'black']","[u'left', u'middle', u'right']","[0.8, 0.4, 0.2]","[u'high', u'medium', u'low']","blue",49,"left","high","True","False",57,7300,NA
"AP26GRD3QSPRP","Sat Oct 03 2020 16:30:27 GMT-0500 (Central Daylight Time)","Sat Oct 03 2020 16:36:29 GMT-0500 (Central Daylight Time)","Mozilla/5.0 (Macintosh; Intel Mac OS X 10_15_7) AppleWebKit/537.36 (KHTML, like Gecko) Chrome/85.0.4183.121 Safari/537.36",140,"[0.9, 0.5, 0.1]","[0.8, 0.4, 0.2]","[u'blue', u'red', u'black']","[u'left', u'middle', u'right']","[0.8, 0.4, 0.2]","[u'high', u'medium', u'low']","blue",49,"left","high","False","False",101,7250,NA
"AP26GRD3QSPRP","Sat Oct 03 2020 16:30:27 GMT-0500 (Central Daylight Time)","Sat Oct 03 2020 16:36:29 GMT-0500 (Central Daylight Time)","Mozilla/5.0 (Macintosh; Intel Mac OS X 10_15_7) AppleWebKit/537.36 (KHTML, like Gecko) Chrome/85.0.4183.121 Safari/537.36",141,"[0.9, 0.5, 0.1]","[0.8, 0.4, 0.2]","[u'blue', u'red', u'black']","[u'left', u'middle', u'right']","[0.8, 0.4, 0.2]","[u'high', u'medium', u'low']","red",50,"middle","medium","False","False",194,7200,NA
"AP26GRD3QSPRP","Sat Oct 03 2020 16:30:27 GMT-0500 (Central Daylight Time)","Sat Oct 03 2020 16:36:29 GMT-0500 (Central Daylight Time)","Mozilla/5.0 (Macintosh; Intel Mac OS X 10_15_7) AppleWebKit/537.36 (KHTML, like Gecko) Chrome/85.0.4183.121 Safari/537.36",142,"[0.9, 0.5, 0.1]","[0.8, 0.4, 0.2]","[u'blue', u'red', u'black']","[u'left', u'middle', u'right']","[0.8, 0.4, 0.2]","[u'high', u'medium', u'low']","black",51,"right","low","False","False",146,7150,NA
"AP26GRD3QSPRP","Sat Oct 03 2020 16:30:27 GMT-0500 (Central Daylight Time)","Sat Oct 03 2020 16:36:29 GMT-0500 (Central Daylight Time)","Mozilla/5.0 (Macintosh; Intel Mac OS X 10_15_7) AppleWebKit/537.36 (KHTML, like Gecko) Chrome/85.0.4183.121 Safari/537.36",143,"[0.9, 0.5, 0.1]","[0.8, 0.4, 0.2]","[u'blue', u'red', u'black']","[u'left', u'middle', u'right']","[0.8, 0.4, 0.2]","[u'high', u'medium', u'low']","blue",49,"left","high","False","False",193,7100,NA
"AP26GRD3QSPRP","Sat Oct 03 2020 16:30:27 GMT-0500 (Central Daylight Time)","Sat Oct 03 2020 16:36:29 GMT-0500 (Central Daylight Time)","Mozilla/5.0 (Macintosh; Intel Mac OS X 10_15_7) AppleWebKit/537.36 (KHTML, like Gecko) Chrome/85.0.4183.121 Safari/537.36",144,"[0.9, 0.5, 0.1]","[0.8, 0.4, 0.2]","[u'blue', u'red', u'black']","[u'left', u'middle', u'right']","[0.8, 0.4, 0.2]","[u'high', u'medium', u'low']","red",50,"middle","medium","True","False",205,7200,NA
"AP26GRD3QSPRP","Sat Oct 03 2020 16:30:27 GMT-0500 (Central Daylight Time)","Sat Oct 03 2020 16:36:29 GMT-0500 (Central Daylight Time)","Mozilla/5.0 (Macintosh; Intel Mac OS X 10_15_7) AppleWebKit/537.36 (KHTML, like Gecko) Chrome/85.0.4183.121 Safari/537.36",145,"[0.9, 0.5, 0.1]","[0.8, 0.4, 0.2]","[u'blue', u'red', u'black']","[u'left', u'middle', u'right']","[0.8, 0.4, 0.2]","[u'high', u'medium', u'low']","blue",49,"left","high","True","False",148,7300,NA
"AP26GRD3QSPRP","Sat Oct 03 2020 16:30:27 GMT-0500 (Central Daylight Time)","Sat Oct 03 2020 16:36:29 GMT-0500 (Central Daylight Time)","Mozilla/5.0 (Macintosh; Intel Mac OS X 10_15_7) AppleWebKit/537.36 (KHTML, like Gecko) Chrome/85.0.4183.121 Safari/537.36",146,"[0.9, 0.5, 0.1]","[0.8, 0.4, 0.2]","[u'blue', u'red', u'black']","[u'left', u'middle', u'right']","[0.8, 0.4, 0.2]","[u'high', u'medium', u'low']","red",50,"middle","medium","True","False",194,7400,NA
"AP26GRD3QSPRP","Sat Oct 03 2020 16:30:27 GMT-0500 (Central Daylight Time)","Sat Oct 03 2020 16:36:29 GMT-0500 (Central Daylight Time)","Mozilla/5.0 (Macintosh; Intel Mac OS X 10_15_7) AppleWebKit/537.36 (KHTML, like Gecko) Chrome/85.0.4183.121 Safari/537.36",147,"[0.9, 0.5, 0.1]","[0.8, 0.4, 0.2]","[u'blue', u'red', u'black']","[u'left', u'middle', u'right']","[0.8, 0.4, 0.2]","[u'high', u'medium', u'low']","blue",49,"left","high","True","False",145,7500,NA
"AP26GRD3QSPRP","Sat Oct 03 2020 16:30:27 GMT-0500 (Central Daylight Time)","Sat Oct 03 2020 16:36:29 GMT-0500 (Central Daylight Time)","Mozilla/5.0 (Macintosh; Intel Mac OS X 10_15_7) AppleWebKit/537.36 (KHTML, like Gecko) Chrome/85.0.4183.121 Safari/537.36",148,"[0.9, 0.5, 0.1]","[0.8, 0.4, 0.2]","[u'blue', u'red', u'black']","[u'left', u'middle', u'right']","[0.8, 0.4, 0.2]","[u'high', u'medium', u'low']","red",50,"middle","medium","False","False",130,7450,NA
"AP26GRD3QSPRP","Sat Oct 03 2020 16:30:27 GMT-0500 (Central Daylight Time)","Sat Oct 03 2020 16:36:29 GMT-0500 (Central Daylight Time)","Mozilla/5.0 (Macintosh; Intel Mac OS X 10_15_7) AppleWebKit/537.36 (KHTML, like Gecko) Chrome/85.0.4183.121 Safari/537.36",149,"[0.9, 0.5, 0.1]","[0.8, 0.4, 0.2]","[u'blue', u'red', u'black']","[u'left', u'middle', u'right']","[0.8, 0.4, 0.2]","[u'high', u'medium', u'low']","blue",49,"left","high","True","False",223,7550,NA
"AP26GRD3QSPRP","Sat Oct 03 2020 16:30:27 GMT-0500 (Central Daylight Time)","Sat Oct 03 2020 16:36:29 GMT-0500 (Central Daylight Time)","Mozilla/5.0 (Macintosh; Intel Mac OS X 10_15_7) AppleWebKit/537.36 (KHTML, like Gecko) Chrome/85.0.4183.121 Safari/537.36",150,"[0.9, 0.5, 0.1]","[0.8, 0.4, 0.2]","[u'blue', u'red', u'black']","[u'left', u'middle', u'right']","[0.8, 0.4, 0.2]","[u'high', u'medium', u'low']","black",51,"right","low","False","False",251,7500,NA
"AP26GRD3QSPRP","Sat Oct 03 2020 16:30:27 GMT-0500 (Central Daylight Time)","Sat Oct 03 2020 16:36:29 GMT-0500 (Central Daylight Time)","Mozilla/5.0 (Macintosh; Intel Mac OS X 10_15_7) AppleWebKit/537.36 (KHTML, like Gecko) Chrome/85.0.4183.121 Safari/537.36",151,"[0.9, 0.5, 0.1]","[0.8, 0.4, 0.2]","[u'blue', u'red', u'black']","[u'left', u'middle', u'right']","[0.8, 0.4, 0.2]","[u'high', u'medium', u'low']","blue",49,"left","high","True","False",284,7600,NA
"AP26GRD3QSPRP","Sat Oct 03 2020 16:30:27 GMT-0500 (Central Daylight Time)","Sat Oct 03 2020 16:36:29 GMT-0500 (Central Daylight Time)","Mozilla/5.0 (Macintosh; Intel Mac OS X 10_15_7) AppleWebKit/537.36 (KHTML, like Gecko) Chrome/85.0.4183.121 Safari/537.36",152,"[0.9, 0.5, 0.1]","[0.8, 0.4, 0.2]","[u'blue', u'red', u'black']","[u'left', u'middle', u'right']","[0.8, 0.4, 0.2]","[u'high', u'medium', u'low']","blue",49,"left","high","False","False",430,7550,NA
"AP26GRD3QSPRP","Sat Oct 03 2020 16:30:27 GMT-0500 (Central Daylight Time)","Sat Oct 03 2020 16:36:29 GMT-0500 (Central Daylight Time)","Mozilla/5.0 (Macintosh; Intel Mac OS X 10_15_7) AppleWebKit/537.36 (KHTML, like Gecko) Chrome/85.0.4183.121 Safari/537.36",153,"[0.9, 0.5, 0.1]","[0.8, 0.4, 0.2]","[u'blue', u'red', u'black']","[u'left', u'middle', u'right']","[0.8, 0.4, 0.2]","[u'high', u'medium', u'low']","red",50,"middle","medium","False","False",342,7500,NA
"AP26GRD3QSPRP","Sat Oct 03 2020 16:30:27 GMT-0500 (Central Daylight Time)","Sat Oct 03 2020 16:36:29 GMT-0500 (Central Daylight Time)","Mozilla/5.0 (Macintosh; Intel Mac OS X 10_15_7) AppleWebKit/537.36 (KHTML, like Gecko) Chrome/85.0.4183.121 Safari/537.36",154,"[0.9, 0.5, 0.1]","[0.8, 0.4, 0.2]","[u'blue', u'red', u'black']","[u'left', u'middle', u'right']","[0.8, 0.4, 0.2]","[u'high', u'medium', u'low']","black",51,"right","low","True","False",224,7600,NA
"AP26GRD3QSPRP","Sat Oct 03 2020 16:30:27 GMT-0500 (Central Daylight Time)","Sat Oct 03 2020 16:36:29 GMT-0500 (Central Daylight Time)","Mozilla/5.0 (Macintosh; Intel Mac OS X 10_15_7) AppleWebKit/537.36 (KHTML, like Gecko) Chrome/85.0.4183.121 Safari/537.36",155,"[0.9, 0.5, 0.1]","[0.8, 0.4, 0.2]","[u'blue', u'red', u'black']","[u'left', u'middle', u'right']","[0.8, 0.4, 0.2]","[u'high', u'medium', u'low']","blue",49,"left","high","False","False",295,7550,NA
"AP26GRD3QSPRP","Sat Oct 03 2020 16:30:27 GMT-0500 (Central Daylight Time)","Sat Oct 03 2020 16:36:29 GMT-0500 (Central Daylight Time)","Mozilla/5.0 (Macintosh; Intel Mac OS X 10_15_7) AppleWebKit/537.36 (KHTML, like Gecko) Chrome/85.0.4183.121 Safari/537.36",156,"[0.9, 0.5, 0.1]","[0.8, 0.4, 0.2]","[u'blue', u'red', u'black']","[u'left', u'middle', u'right']","[0.8, 0.4, 0.2]","[u'high', u'medium', u'low']","red",50,"middle","medium","False","False",279,7500,NA
"AP26GRD3QSPRP","Sat Oct 03 2020 16:30:27 GMT-0500 (Central Daylight Time)","Sat Oct 03 2020 16:36:29 GMT-0500 (Central Daylight Time)","Mozilla/5.0 (Macintosh; Intel Mac OS X 10_15_7) AppleWebKit/537.36 (KHTML, like Gecko) Chrome/85.0.4183.121 Safari/537.36",157,"[0.9, 0.5, 0.1]","[0.8, 0.4, 0.2]","[u'blue', u'red', u'black']","[u'left', u'middle', u'right']","[0.8, 0.4, 0.2]","[u'high', u'medium', u'low']","blue",49,"left","high","True","False",237,7600,NA
"AP26GRD3QSPRP","Sat Oct 03 2020 16:30:27 GMT-0500 (Central Daylight Time)","Sat Oct 03 2020 16:36:29 GMT-0500 (Central Daylight Time)","Mozilla/5.0 (Macintosh; Intel Mac OS X 10_15_7) AppleWebKit/537.36 (KHTML, like Gecko) Chrome/85.0.4183.121 Safari/537.36",158,"[0.9, 0.5, 0.1]","[0.8, 0.4, 0.2]","[u'blue', u'red', u'black']","[u'left', u'middle', u'right']","[0.8, 0.4, 0.2]","[u'high', u'medium', u'low']","black",51,"right","low","False","False",207,7550,NA
"AP26GRD3QSPRP","Sat Oct 03 2020 16:30:27 GMT-0500 (Central Daylight Time)","Sat Oct 03 2020 16:36:29 GMT-0500 (Central Daylight Time)","Mozilla/5.0 (Macintosh; Intel Mac OS X 10_15_7) AppleWebKit/537.36 (KHTML, like Gecko) Chrome/85.0.4183.121 Safari/537.36",159,"[0.9, 0.5, 0.1]","[0.8, 0.4, 0.2]","[u'blue', u'red', u'black']","[u'left', u'middle', u'right']","[0.8, 0.4, 0.2]","[u'high', u'medium', u'low']","blue",49,"left","high","True","False",300,7650,NA
"AP26GRD3QSPRP","Sat Oct 03 2020 16:30:27 GMT-0500 (Central Daylight Time)","Sat Oct 03 2020 16:36:29 GMT-0500 (Central Daylight Time)","Mozilla/5.0 (Macintosh; Intel Mac OS X 10_15_7) AppleWebKit/537.36 (KHTML, like Gecko) Chrome/85.0.4183.121 Safari/537.36",160,"[0.9, 0.5, 0.1]","[0.8, 0.4, 0.2]","[u'blue', u'red', u'black']","[u'left', u'middle', u'right']","[0.8, 0.4, 0.2]","[u'high', u'medium', u'low']","red",50,"middle","medium","False","False",89,7600,NA
