"src_subject_id","start_time","end_time","browser","index","first_half_probabilities","second_half_probabilities","deck_color","deck_position","deck_probabilities","deck_contingencies","response_color","key_press","response_position","response_probability","reward_type","trial_type","rt","reward_tally","exclusion_reason"
"A2SR85I8JMO1ZZ","Sat Oct 03 2020 18:06:51 GMT-0500 (Central Daylight Time)","Sat Oct 03 2020 18:13:04 GMT-0500 (Central Daylight Time)","Mozilla/5.0 (Macintosh; Intel Mac OS X 10_14_4) AppleWebKit/537.36 (KHTML, like Gecko) Chrome/78.0.3904.108 Safari/537.36",1,"[0.9, 0.5, 0.1]","[0.8, 0.4, 0.2]","[u'red', u'black', u'blue']","[u'left', u'middle', u'right']","[0.9, 0.5, 0.1]","[u'low', u'high', u'medium']","blue",51,"right","medium","False","False",562,-50,NA
"A2SR85I8JMO1ZZ","Sat Oct 03 2020 18:06:51 GMT-0500 (Central Daylight Time)","Sat Oct 03 2020 18:13:04 GMT-0500 (Central Daylight Time)","Mozilla/5.0 (Macintosh; Intel Mac OS X 10_14_4) AppleWebKit/537.36 (KHTML, like Gecko) Chrome/78.0.3904.108 Safari/537.36",2,"[0.9, 0.5, 0.1]","[0.8, 0.4, 0.2]","[u'red', u'black', u'blue']","[u'left', u'middle', u'right']","[0.9, 0.5, 0.1]","[u'low', u'high', u'medium']","red",49,"left","low","False","False",113,-100,NA
"A2SR85I8JMO1ZZ","Sat Oct 03 2020 18:06:51 GMT-0500 (Central Daylight Time)","Sat Oct 03 2020 18:13:04 GMT-0500 (Central Daylight Time)","Mozilla/5.0 (Macintosh; Intel Mac OS X 10_14_4) AppleWebKit/537.36 (KHTML, like Gecko) Chrome/78.0.3904.108 Safari/537.36",3,"[0.9, 0.5, 0.1]","[0.8, 0.4, 0.2]","[u'red', u'black', u'blue']","[u'left', u'middle', u'right']","[0.9, 0.5, 0.1]","[u'low', u'high', u'medium']","black",50,"middle","high","True","False",105,0,NA
"A2SR85I8JMO1ZZ","Sat Oct 03 2020 18:06:51 GMT-0500 (Central Daylight Time)","Sat Oct 03 2020 18:13:04 GMT-0500 (Central Daylight Time)","Mozilla/5.0 (Macintosh; Intel Mac OS X 10_14_4) AppleWebKit/537.36 (KHTML, like Gecko) Chrome/78.0.3904.108 Safari/537.36",4,"[0.9, 0.5, 0.1]","[0.8, 0.4, 0.2]","[u'red', u'black', u'blue']","[u'left', u'middle', u'right']","[0.9, 0.5, 0.1]","[u'low', u'high', u'medium']","black",50,"middle","high","True","False",262,100,NA
"A2SR85I8JMO1ZZ","Sat Oct 03 2020 18:06:51 GMT-0500 (Central Daylight Time)","Sat Oct 03 2020 18:13:04 GMT-0500 (Central Daylight Time)","Mozilla/5.0 (Macintosh; Intel Mac OS X 10_14_4) AppleWebKit/537.36 (KHTML, like Gecko) Chrome/78.0.3904.108 Safari/537.36",5,"[0.9, 0.5, 0.1]","[0.8, 0.4, 0.2]","[u'red', u'black', u'blue']","[u'left', u'middle', u'right']","[0.9, 0.5, 0.1]","[u'low', u'high', u'medium']","black",50,"middle","high","True","False",276,200,NA
"A2SR85I8JMO1ZZ","Sat Oct 03 2020 18:06:51 GMT-0500 (Central Daylight Time)","Sat Oct 03 2020 18:13:04 GMT-0500 (Central Daylight Time)","Mozilla/5.0 (Macintosh; Intel Mac OS X 10_14_4) AppleWebKit/537.36 (KHTML, like Gecko) Chrome/78.0.3904.108 Safari/537.36",6,"[0.9, 0.5, 0.1]","[0.8, 0.4, 0.2]","[u'red', u'black', u'blue']","[u'left', u'middle', u'right']","[0.9, 0.5, 0.1]","[u'low', u'high', u'medium']","black",50,"middle","high","True","False",262,300,NA
"A2SR85I8JMO1ZZ","Sat Oct 03 2020 18:06:51 GMT-0500 (Central Daylight Time)","Sat Oct 03 2020 18:13:04 GMT-0500 (Central Daylight Time)","Mozilla/5.0 (Macintosh; Intel Mac OS X 10_14_4) AppleWebKit/537.36 (KHTML, like Gecko) Chrome/78.0.3904.108 Safari/537.36",7,"[0.9, 0.5, 0.1]","[0.8, 0.4, 0.2]","[u'red', u'black', u'blue']","[u'left', u'middle', u'right']","[0.9, 0.5, 0.1]","[u'low', u'high', u'medium']","black",50,"middle","high","True","False",249,400,NA
"A2SR85I8JMO1ZZ","Sat Oct 03 2020 18:06:51 GMT-0500 (Central Daylight Time)","Sat Oct 03 2020 18:13:04 GMT-0500 (Central Daylight Time)","Mozilla/5.0 (Macintosh; Intel Mac OS X 10_14_4) AppleWebKit/537.36 (KHTML, like Gecko) Chrome/78.0.3904.108 Safari/537.36",8,"[0.9, 0.5, 0.1]","[0.8, 0.4, 0.2]","[u'red', u'black', u'blue']","[u'left', u'middle', u'right']","[0.9, 0.5, 0.1]","[u'low', u'high', u'medium']","black",50,"middle","high","True","False",267,500,NA
"A2SR85I8JMO1ZZ","Sat Oct 03 2020 18:06:51 GMT-0500 (Central Daylight Time)","Sat Oct 03 2020 18:13:04 GMT-0500 (Central Daylight Time)","Mozilla/5.0 (Macintosh; Intel Mac OS X 10_14_4) AppleWebKit/537.36 (KHTML, like Gecko) Chrome/78.0.3904.108 Safari/537.36",9,"[0.9, 0.5, 0.1]","[0.8, 0.4, 0.2]","[u'red', u'black', u'blue']","[u'left', u'middle', u'right']","[0.9, 0.5, 0.1]","[u'low', u'high', u'medium']","black",50,"middle","high","True","False",270,600,NA
"A2SR85I8JMO1ZZ","Sat Oct 03 2020 18:06:51 GMT-0500 (Central Daylight Time)","Sat Oct 03 2020 18:13:04 GMT-0500 (Central Daylight Time)","Mozilla/5.0 (Macintosh; Intel Mac OS X 10_14_4) AppleWebKit/537.36 (KHTML, like Gecko) Chrome/78.0.3904.108 Safari/537.36",10,"[0.9, 0.5, 0.1]","[0.8, 0.4, 0.2]","[u'red', u'black', u'blue']","[u'left', u'middle', u'right']","[0.9, 0.5, 0.1]","[u'low', u'high', u'medium']","black",50,"middle","high","True","False",264,700,NA
"A2SR85I8JMO1ZZ","Sat Oct 03 2020 18:06:51 GMT-0500 (Central Daylight Time)","Sat Oct 03 2020 18:13:04 GMT-0500 (Central Daylight Time)","Mozilla/5.0 (Macintosh; Intel Mac OS X 10_14_4) AppleWebKit/537.36 (KHTML, like Gecko) Chrome/78.0.3904.108 Safari/537.36",11,"[0.9, 0.5, 0.1]","[0.8, 0.4, 0.2]","[u'red', u'black', u'blue']","[u'left', u'middle', u'right']","[0.9, 0.5, 0.1]","[u'low', u'high', u'medium']","black",50,"middle","high","False","True",226,650,NA
"A2SR85I8JMO1ZZ","Sat Oct 03 2020 18:06:51 GMT-0500 (Central Daylight Time)","Sat Oct 03 2020 18:13:04 GMT-0500 (Central Daylight Time)","Mozilla/5.0 (Macintosh; Intel Mac OS X 10_14_4) AppleWebKit/537.36 (KHTML, like Gecko) Chrome/78.0.3904.108 Safari/537.36",12,"[0.9, 0.5, 0.1]","[0.8, 0.4, 0.2]","[u'red', u'black', u'blue']","[u'left', u'middle', u'right']","[0.9, 0.5, 0.1]","[u'high', u'medium', u'low']","black",50,"middle","medium","True","False",317,750,NA
"A2SR85I8JMO1ZZ","Sat Oct 03 2020 18:06:51 GMT-0500 (Central Daylight Time)","Sat Oct 03 2020 18:13:04 GMT-0500 (Central Daylight Time)","Mozilla/5.0 (Macintosh; Intel Mac OS X 10_14_4) AppleWebKit/537.36 (KHTML, like Gecko) Chrome/78.0.3904.108 Safari/537.36",13,"[0.9, 0.5, 0.1]","[0.8, 0.4, 0.2]","[u'red', u'black', u'blue']","[u'left', u'middle', u'right']","[0.9, 0.5, 0.1]","[u'high', u'medium', u'low']","black",50,"middle","medium","True","False",254,850,NA
"A2SR85I8JMO1ZZ","Sat Oct 03 2020 18:06:51 GMT-0500 (Central Daylight Time)","Sat Oct 03 2020 18:13:04 GMT-0500 (Central Daylight Time)","Mozilla/5.0 (Macintosh; Intel Mac OS X 10_14_4) AppleWebKit/537.36 (KHTML, like Gecko) Chrome/78.0.3904.108 Safari/537.36",14,"[0.9, 0.5, 0.1]","[0.8, 0.4, 0.2]","[u'red', u'black', u'blue']","[u'left', u'middle', u'right']","[0.9, 0.5, 0.1]","[u'high', u'medium', u'low']","black",50,"middle","medium","True","False",246,950,NA
"A2SR85I8JMO1ZZ","Sat Oct 03 2020 18:06:51 GMT-0500 (Central Daylight Time)","Sat Oct 03 2020 18:13:04 GMT-0500 (Central Daylight Time)","Mozilla/5.0 (Macintosh; Intel Mac OS X 10_14_4) AppleWebKit/537.36 (KHTML, like Gecko) Chrome/78.0.3904.108 Safari/537.36",15,"[0.9, 0.5, 0.1]","[0.8, 0.4, 0.2]","[u'red', u'black', u'blue']","[u'left', u'middle', u'right']","[0.9, 0.5, 0.1]","[u'high', u'medium', u'low']","black",50,"middle","medium","True","False",217,1050,NA
"A2SR85I8JMO1ZZ","Sat Oct 03 2020 18:06:51 GMT-0500 (Central Daylight Time)","Sat Oct 03 2020 18:13:04 GMT-0500 (Central Daylight Time)","Mozilla/5.0 (Macintosh; Intel Mac OS X 10_14_4) AppleWebKit/537.36 (KHTML, like Gecko) Chrome/78.0.3904.108 Safari/537.36",16,"[0.9, 0.5, 0.1]","[0.8, 0.4, 0.2]","[u'red', u'black', u'blue']","[u'left', u'middle', u'right']","[0.9, 0.5, 0.1]","[u'high', u'medium', u'low']","black",50,"middle","medium","True","False",228,1150,NA
"A2SR85I8JMO1ZZ","Sat Oct 03 2020 18:06:51 GMT-0500 (Central Daylight Time)","Sat Oct 03 2020 18:13:04 GMT-0500 (Central Daylight Time)","Mozilla/5.0 (Macintosh; Intel Mac OS X 10_14_4) AppleWebKit/537.36 (KHTML, like Gecko) Chrome/78.0.3904.108 Safari/537.36",17,"[0.9, 0.5, 0.1]","[0.8, 0.4, 0.2]","[u'red', u'black', u'blue']","[u'left', u'middle', u'right']","[0.9, 0.5, 0.1]","[u'high', u'medium', u'low']","black",50,"middle","medium","False","False",147,1100,NA
"A2SR85I8JMO1ZZ","Sat Oct 03 2020 18:06:51 GMT-0500 (Central Daylight Time)","Sat Oct 03 2020 18:13:04 GMT-0500 (Central Daylight Time)","Mozilla/5.0 (Macintosh; Intel Mac OS X 10_14_4) AppleWebKit/537.36 (KHTML, like Gecko) Chrome/78.0.3904.108 Safari/537.36",18,"[0.9, 0.5, 0.1]","[0.8, 0.4, 0.2]","[u'red', u'black', u'blue']","[u'left', u'middle', u'right']","[0.9, 0.5, 0.1]","[u'high', u'medium', u'low']","black",50,"middle","medium","True","False",237,1200,NA
"A2SR85I8JMO1ZZ","Sat Oct 03 2020 18:06:51 GMT-0500 (Central Daylight Time)","Sat Oct 03 2020 18:13:04 GMT-0500 (Central Daylight Time)","Mozilla/5.0 (Macintosh; Intel Mac OS X 10_14_4) AppleWebKit/537.36 (KHTML, like Gecko) Chrome/78.0.3904.108 Safari/537.36",19,"[0.9, 0.5, 0.1]","[0.8, 0.4, 0.2]","[u'red', u'black', u'blue']","[u'left', u'middle', u'right']","[0.9, 0.5, 0.1]","[u'high', u'medium', u'low']","black",50,"middle","medium","False","False",236,1150,NA
"A2SR85I8JMO1ZZ","Sat Oct 03 2020 18:06:51 GMT-0500 (Central Daylight Time)","Sat Oct 03 2020 18:13:04 GMT-0500 (Central Daylight Time)","Mozilla/5.0 (Macintosh; Intel Mac OS X 10_14_4) AppleWebKit/537.36 (KHTML, like Gecko) Chrome/78.0.3904.108 Safari/537.36",20,"[0.9, 0.5, 0.1]","[0.8, 0.4, 0.2]","[u'red', u'black', u'blue']","[u'left', u'middle', u'right']","[0.9, 0.5, 0.1]","[u'high', u'medium', u'low']","black",50,"middle","medium","True","False",246,1250,NA
"A2SR85I8JMO1ZZ","Sat Oct 03 2020 18:06:51 GMT-0500 (Central Daylight Time)","Sat Oct 03 2020 18:13:04 GMT-0500 (Central Daylight Time)","Mozilla/5.0 (Macintosh; Intel Mac OS X 10_14_4) AppleWebKit/537.36 (KHTML, like Gecko) Chrome/78.0.3904.108 Safari/537.36",21,"[0.9, 0.5, 0.1]","[0.8, 0.4, 0.2]","[u'red', u'black', u'blue']","[u'left', u'middle', u'right']","[0.9, 0.5, 0.1]","[u'high', u'medium', u'low']","black",50,"middle","medium","False","False",124,1200,NA
"A2SR85I8JMO1ZZ","Sat Oct 03 2020 18:06:51 GMT-0500 (Central Daylight Time)","Sat Oct 03 2020 18:13:04 GMT-0500 (Central Daylight Time)","Mozilla/5.0 (Macintosh; Intel Mac OS X 10_14_4) AppleWebKit/537.36 (KHTML, like Gecko) Chrome/78.0.3904.108 Safari/537.36",22,"[0.9, 0.5, 0.1]","[0.8, 0.4, 0.2]","[u'red', u'black', u'blue']","[u'left', u'middle', u'right']","[0.9, 0.5, 0.1]","[u'high', u'medium', u'low']","black",50,"middle","medium","False","False",285,1150,NA
"A2SR85I8JMO1ZZ","Sat Oct 03 2020 18:06:51 GMT-0500 (Central Daylight Time)","Sat Oct 03 2020 18:13:04 GMT-0500 (Central Daylight Time)","Mozilla/5.0 (Macintosh; Intel Mac OS X 10_14_4) AppleWebKit/537.36 (KHTML, like Gecko) Chrome/78.0.3904.108 Safari/537.36",23,"[0.9, 0.5, 0.1]","[0.8, 0.4, 0.2]","[u'red', u'black', u'blue']","[u'left', u'middle', u'right']","[0.9, 0.5, 0.1]","[u'high', u'medium', u'low']","blue",51,"right","low","False","False",192,1100,NA
"A2SR85I8JMO1ZZ","Sat Oct 03 2020 18:06:51 GMT-0500 (Central Daylight Time)","Sat Oct 03 2020 18:13:04 GMT-0500 (Central Daylight Time)","Mozilla/5.0 (Macintosh; Intel Mac OS X 10_14_4) AppleWebKit/537.36 (KHTML, like Gecko) Chrome/78.0.3904.108 Safari/537.36",24,"[0.9, 0.5, 0.1]","[0.8, 0.4, 0.2]","[u'red', u'black', u'blue']","[u'left', u'middle', u'right']","[0.9, 0.5, 0.1]","[u'high', u'medium', u'low']","blue",51,"right","low","False","False",303,1050,NA
"A2SR85I8JMO1ZZ","Sat Oct 03 2020 18:06:51 GMT-0500 (Central Daylight Time)","Sat Oct 03 2020 18:13:04 GMT-0500 (Central Daylight Time)","Mozilla/5.0 (Macintosh; Intel Mac OS X 10_14_4) AppleWebKit/537.36 (KHTML, like Gecko) Chrome/78.0.3904.108 Safari/537.36",25,"[0.9, 0.5, 0.1]","[0.8, 0.4, 0.2]","[u'red', u'black', u'blue']","[u'left', u'middle', u'right']","[0.9, 0.5, 0.1]","[u'high', u'medium', u'low']","black",50,"middle","medium","False","False",209,1000,NA
"A2SR85I8JMO1ZZ","Sat Oct 03 2020 18:06:51 GMT-0500 (Central Daylight Time)","Sat Oct 03 2020 18:13:04 GMT-0500 (Central Daylight Time)","Mozilla/5.0 (Macintosh; Intel Mac OS X 10_14_4) AppleWebKit/537.36 (KHTML, like Gecko) Chrome/78.0.3904.108 Safari/537.36",26,"[0.9, 0.5, 0.1]","[0.8, 0.4, 0.2]","[u'red', u'black', u'blue']","[u'left', u'middle', u'right']","[0.9, 0.5, 0.1]","[u'high', u'medium', u'low']","red",49,"left","high","True","False",195,1100,NA
"A2SR85I8JMO1ZZ","Sat Oct 03 2020 18:06:51 GMT-0500 (Central Daylight Time)","Sat Oct 03 2020 18:13:04 GMT-0500 (Central Daylight Time)","Mozilla/5.0 (Macintosh; Intel Mac OS X 10_14_4) AppleWebKit/537.36 (KHTML, like Gecko) Chrome/78.0.3904.108 Safari/537.36",27,"[0.9, 0.5, 0.1]","[0.8, 0.4, 0.2]","[u'red', u'black', u'blue']","[u'left', u'middle', u'right']","[0.9, 0.5, 0.1]","[u'high', u'medium', u'low']","red",49,"left","high","True","False",136,1200,NA
"A2SR85I8JMO1ZZ","Sat Oct 03 2020 18:06:51 GMT-0500 (Central Daylight Time)","Sat Oct 03 2020 18:13:04 GMT-0500 (Central Daylight Time)","Mozilla/5.0 (Macintosh; Intel Mac OS X 10_14_4) AppleWebKit/537.36 (KHTML, like Gecko) Chrome/78.0.3904.108 Safari/537.36",28,"[0.9, 0.5, 0.1]","[0.8, 0.4, 0.2]","[u'red', u'black', u'blue']","[u'left', u'middle', u'right']","[0.9, 0.5, 0.1]","[u'high', u'medium', u'low']","red",49,"left","high","True","False",165,1300,NA
"A2SR85I8JMO1ZZ","Sat Oct 03 2020 18:06:51 GMT-0500 (Central Daylight Time)","Sat Oct 03 2020 18:13:04 GMT-0500 (Central Daylight Time)","Mozilla/5.0 (Macintosh; Intel Mac OS X 10_14_4) AppleWebKit/537.36 (KHTML, like Gecko) Chrome/78.0.3904.108 Safari/537.36",29,"[0.9, 0.5, 0.1]","[0.8, 0.4, 0.2]","[u'red', u'black', u'blue']","[u'left', u'middle', u'right']","[0.9, 0.5, 0.1]","[u'high', u'medium', u'low']","red",49,"left","high","True","False",111,1400,NA
"A2SR85I8JMO1ZZ","Sat Oct 03 2020 18:06:51 GMT-0500 (Central Daylight Time)","Sat Oct 03 2020 18:13:04 GMT-0500 (Central Daylight Time)","Mozilla/5.0 (Macintosh; Intel Mac OS X 10_14_4) AppleWebKit/537.36 (KHTML, like Gecko) Chrome/78.0.3904.108 Safari/537.36",30,"[0.9, 0.5, 0.1]","[0.8, 0.4, 0.2]","[u'red', u'black', u'blue']","[u'left', u'middle', u'right']","[0.9, 0.5, 0.1]","[u'high', u'medium', u'low']","red",49,"left","high","True","False",66,1500,NA
"A2SR85I8JMO1ZZ","Sat Oct 03 2020 18:06:51 GMT-0500 (Central Daylight Time)","Sat Oct 03 2020 18:13:04 GMT-0500 (Central Daylight Time)","Mozilla/5.0 (Macintosh; Intel Mac OS X 10_14_4) AppleWebKit/537.36 (KHTML, like Gecko) Chrome/78.0.3904.108 Safari/537.36",31,"[0.9, 0.5, 0.1]","[0.8, 0.4, 0.2]","[u'red', u'black', u'blue']","[u'left', u'middle', u'right']","[0.9, 0.5, 0.1]","[u'high', u'medium', u'low']","red",49,"left","high","True","False",89,1600,NA
"A2SR85I8JMO1ZZ","Sat Oct 03 2020 18:06:51 GMT-0500 (Central Daylight Time)","Sat Oct 03 2020 18:13:04 GMT-0500 (Central Daylight Time)","Mozilla/5.0 (Macintosh; Intel Mac OS X 10_14_4) AppleWebKit/537.36 (KHTML, like Gecko) Chrome/78.0.3904.108 Safari/537.36",32,"[0.9, 0.5, 0.1]","[0.8, 0.4, 0.2]","[u'red', u'black', u'blue']","[u'left', u'middle', u'right']","[0.9, 0.5, 0.1]","[u'high', u'medium', u'low']","red",49,"left","high","True","False",131,1700,NA
"A2SR85I8JMO1ZZ","Sat Oct 03 2020 18:06:51 GMT-0500 (Central Daylight Time)","Sat Oct 03 2020 18:13:04 GMT-0500 (Central Daylight Time)","Mozilla/5.0 (Macintosh; Intel Mac OS X 10_14_4) AppleWebKit/537.36 (KHTML, like Gecko) Chrome/78.0.3904.108 Safari/537.36",33,"[0.9, 0.5, 0.1]","[0.8, 0.4, 0.2]","[u'red', u'black', u'blue']","[u'left', u'middle', u'right']","[0.9, 0.5, 0.1]","[u'high', u'medium', u'low']","red",49,"left","high","True","False",83,1800,NA
"A2SR85I8JMO1ZZ","Sat Oct 03 2020 18:06:51 GMT-0500 (Central Daylight Time)","Sat Oct 03 2020 18:13:04 GMT-0500 (Central Daylight Time)","Mozilla/5.0 (Macintosh; Intel Mac OS X 10_14_4) AppleWebKit/537.36 (KHTML, like Gecko) Chrome/78.0.3904.108 Safari/537.36",34,"[0.9, 0.5, 0.1]","[0.8, 0.4, 0.2]","[u'red', u'black', u'blue']","[u'left', u'middle', u'right']","[0.9, 0.5, 0.1]","[u'high', u'medium', u'low']","red",49,"left","high","True","True",277,1900,NA
"A2SR85I8JMO1ZZ","Sat Oct 03 2020 18:06:51 GMT-0500 (Central Daylight Time)","Sat Oct 03 2020 18:13:04 GMT-0500 (Central Daylight Time)","Mozilla/5.0 (Macintosh; Intel Mac OS X 10_14_4) AppleWebKit/537.36 (KHTML, like Gecko) Chrome/78.0.3904.108 Safari/537.36",35,"[0.9, 0.5, 0.1]","[0.8, 0.4, 0.2]","[u'red', u'black', u'blue']","[u'left', u'middle', u'right']","[0.9, 0.5, 0.1]","[u'medium', u'low', u'high']","red",49,"left","medium","False","False",241,1850,NA
"A2SR85I8JMO1ZZ","Sat Oct 03 2020 18:06:51 GMT-0500 (Central Daylight Time)","Sat Oct 03 2020 18:13:04 GMT-0500 (Central Daylight Time)","Mozilla/5.0 (Macintosh; Intel Mac OS X 10_14_4) AppleWebKit/537.36 (KHTML, like Gecko) Chrome/78.0.3904.108 Safari/537.36",36,"[0.9, 0.5, 0.1]","[0.8, 0.4, 0.2]","[u'red', u'black', u'blue']","[u'left', u'middle', u'right']","[0.9, 0.5, 0.1]","[u'medium', u'low', u'high']","red",49,"left","medium","False","False",196,1800,NA
"A2SR85I8JMO1ZZ","Sat Oct 03 2020 18:06:51 GMT-0500 (Central Daylight Time)","Sat Oct 03 2020 18:13:04 GMT-0500 (Central Daylight Time)","Mozilla/5.0 (Macintosh; Intel Mac OS X 10_14_4) AppleWebKit/537.36 (KHTML, like Gecko) Chrome/78.0.3904.108 Safari/537.36",37,"[0.9, 0.5, 0.1]","[0.8, 0.4, 0.2]","[u'red', u'black', u'blue']","[u'left', u'middle', u'right']","[0.9, 0.5, 0.1]","[u'medium', u'low', u'high']","black",50,"middle","low","True","False",221,1900,NA
"A2SR85I8JMO1ZZ","Sat Oct 03 2020 18:06:51 GMT-0500 (Central Daylight Time)","Sat Oct 03 2020 18:13:04 GMT-0500 (Central Daylight Time)","Mozilla/5.0 (Macintosh; Intel Mac OS X 10_14_4) AppleWebKit/537.36 (KHTML, like Gecko) Chrome/78.0.3904.108 Safari/537.36",38,"[0.9, 0.5, 0.1]","[0.8, 0.4, 0.2]","[u'red', u'black', u'blue']","[u'left', u'middle', u'right']","[0.9, 0.5, 0.1]","[u'medium', u'low', u'high']","black",50,"middle","low","True","False",210,2000,NA
"A2SR85I8JMO1ZZ","Sat Oct 03 2020 18:06:51 GMT-0500 (Central Daylight Time)","Sat Oct 03 2020 18:13:04 GMT-0500 (Central Daylight Time)","Mozilla/5.0 (Macintosh; Intel Mac OS X 10_14_4) AppleWebKit/537.36 (KHTML, like Gecko) Chrome/78.0.3904.108 Safari/537.36",39,"[0.9, 0.5, 0.1]","[0.8, 0.4, 0.2]","[u'red', u'black', u'blue']","[u'left', u'middle', u'right']","[0.9, 0.5, 0.1]","[u'medium', u'low', u'high']","black",50,"middle","low","False","False",61,1950,NA
"A2SR85I8JMO1ZZ","Sat Oct 03 2020 18:06:51 GMT-0500 (Central Daylight Time)","Sat Oct 03 2020 18:13:04 GMT-0500 (Central Daylight Time)","Mozilla/5.0 (Macintosh; Intel Mac OS X 10_14_4) AppleWebKit/537.36 (KHTML, like Gecko) Chrome/78.0.3904.108 Safari/537.36",40,"[0.9, 0.5, 0.1]","[0.8, 0.4, 0.2]","[u'red', u'black', u'blue']","[u'left', u'middle', u'right']","[0.9, 0.5, 0.1]","[u'medium', u'low', u'high']","black",50,"middle","low","False","False",173,1900,NA
"A2SR85I8JMO1ZZ","Sat Oct 03 2020 18:06:51 GMT-0500 (Central Daylight Time)","Sat Oct 03 2020 18:13:04 GMT-0500 (Central Daylight Time)","Mozilla/5.0 (Macintosh; Intel Mac OS X 10_14_4) AppleWebKit/537.36 (KHTML, like Gecko) Chrome/78.0.3904.108 Safari/537.36",41,"[0.9, 0.5, 0.1]","[0.8, 0.4, 0.2]","[u'red', u'black', u'blue']","[u'left', u'middle', u'right']","[0.9, 0.5, 0.1]","[u'high', u'low', u'medium']","black",50,"middle","low","False","False",319,1850,NA
"A2SR85I8JMO1ZZ","Sat Oct 03 2020 18:06:51 GMT-0500 (Central Daylight Time)","Sat Oct 03 2020 18:13:04 GMT-0500 (Central Daylight Time)","Mozilla/5.0 (Macintosh; Intel Mac OS X 10_14_4) AppleWebKit/537.36 (KHTML, like Gecko) Chrome/78.0.3904.108 Safari/537.36",42,"[0.9, 0.5, 0.1]","[0.8, 0.4, 0.2]","[u'red', u'black', u'blue']","[u'left', u'middle', u'right']","[0.9, 0.5, 0.1]","[u'high', u'low', u'medium']","blue",51,"right","medium","False","False",353,1800,NA
"A2SR85I8JMO1ZZ","Sat Oct 03 2020 18:06:51 GMT-0500 (Central Daylight Time)","Sat Oct 03 2020 18:13:04 GMT-0500 (Central Daylight Time)","Mozilla/5.0 (Macintosh; Intel Mac OS X 10_14_4) AppleWebKit/537.36 (KHTML, like Gecko) Chrome/78.0.3904.108 Safari/537.36",43,"[0.9, 0.5, 0.1]","[0.8, 0.4, 0.2]","[u'red', u'black', u'blue']","[u'left', u'middle', u'right']","[0.9, 0.5, 0.1]","[u'high', u'low', u'medium']","red",49,"left","high","True","False",253,1900,NA
"A2SR85I8JMO1ZZ","Sat Oct 03 2020 18:06:51 GMT-0500 (Central Daylight Time)","Sat Oct 03 2020 18:13:04 GMT-0500 (Central Daylight Time)","Mozilla/5.0 (Macintosh; Intel Mac OS X 10_14_4) AppleWebKit/537.36 (KHTML, like Gecko) Chrome/78.0.3904.108 Safari/537.36",44,"[0.9, 0.5, 0.1]","[0.8, 0.4, 0.2]","[u'red', u'black', u'blue']","[u'left', u'middle', u'right']","[0.9, 0.5, 0.1]","[u'high', u'low', u'medium']","red",49,"left","high","True","False",256,2000,NA
"A2SR85I8JMO1ZZ","Sat Oct 03 2020 18:06:51 GMT-0500 (Central Daylight Time)","Sat Oct 03 2020 18:13:04 GMT-0500 (Central Daylight Time)","Mozilla/5.0 (Macintosh; Intel Mac OS X 10_14_4) AppleWebKit/537.36 (KHTML, like Gecko) Chrome/78.0.3904.108 Safari/537.36",45,"[0.9, 0.5, 0.1]","[0.8, 0.4, 0.2]","[u'red', u'black', u'blue']","[u'left', u'middle', u'right']","[0.9, 0.5, 0.1]","[u'high', u'low', u'medium']","red",49,"left","high","True","False",369,2100,NA
"A2SR85I8JMO1ZZ","Sat Oct 03 2020 18:06:51 GMT-0500 (Central Daylight Time)","Sat Oct 03 2020 18:13:04 GMT-0500 (Central Daylight Time)","Mozilla/5.0 (Macintosh; Intel Mac OS X 10_14_4) AppleWebKit/537.36 (KHTML, like Gecko) Chrome/78.0.3904.108 Safari/537.36",46,"[0.9, 0.5, 0.1]","[0.8, 0.4, 0.2]","[u'red', u'black', u'blue']","[u'left', u'middle', u'right']","[0.9, 0.5, 0.1]","[u'high', u'low', u'medium']","red",49,"left","high","True","False",170,2200,NA
"A2SR85I8JMO1ZZ","Sat Oct 03 2020 18:06:51 GMT-0500 (Central Daylight Time)","Sat Oct 03 2020 18:13:04 GMT-0500 (Central Daylight Time)","Mozilla/5.0 (Macintosh; Intel Mac OS X 10_14_4) AppleWebKit/537.36 (KHTML, like Gecko) Chrome/78.0.3904.108 Safari/537.36",47,"[0.9, 0.5, 0.1]","[0.8, 0.4, 0.2]","[u'red', u'black', u'blue']","[u'left', u'middle', u'right']","[0.9, 0.5, 0.1]","[u'high', u'low', u'medium']","red",49,"left","high","True","False",71,2300,NA
"A2SR85I8JMO1ZZ","Sat Oct 03 2020 18:06:51 GMT-0500 (Central Daylight Time)","Sat Oct 03 2020 18:13:04 GMT-0500 (Central Daylight Time)","Mozilla/5.0 (Macintosh; Intel Mac OS X 10_14_4) AppleWebKit/537.36 (KHTML, like Gecko) Chrome/78.0.3904.108 Safari/537.36",48,"[0.9, 0.5, 0.1]","[0.8, 0.4, 0.2]","[u'red', u'black', u'blue']","[u'left', u'middle', u'right']","[0.9, 0.5, 0.1]","[u'high', u'low', u'medium']","red",49,"left","high","True","False",210,2400,NA
"A2SR85I8JMO1ZZ","Sat Oct 03 2020 18:06:51 GMT-0500 (Central Daylight Time)","Sat Oct 03 2020 18:13:04 GMT-0500 (Central Daylight Time)","Mozilla/5.0 (Macintosh; Intel Mac OS X 10_14_4) AppleWebKit/537.36 (KHTML, like Gecko) Chrome/78.0.3904.108 Safari/537.36",49,"[0.9, 0.5, 0.1]","[0.8, 0.4, 0.2]","[u'red', u'black', u'blue']","[u'left', u'middle', u'right']","[0.9, 0.5, 0.1]","[u'high', u'low', u'medium']","red",49,"left","high","True","False",152,2500,NA
"A2SR85I8JMO1ZZ","Sat Oct 03 2020 18:06:51 GMT-0500 (Central Daylight Time)","Sat Oct 03 2020 18:13:04 GMT-0500 (Central Daylight Time)","Mozilla/5.0 (Macintosh; Intel Mac OS X 10_14_4) AppleWebKit/537.36 (KHTML, like Gecko) Chrome/78.0.3904.108 Safari/537.36",50,"[0.9, 0.5, 0.1]","[0.8, 0.4, 0.2]","[u'red', u'black', u'blue']","[u'left', u'middle', u'right']","[0.9, 0.5, 0.1]","[u'high', u'low', u'medium']","red",49,"left","high","True","False",225,2600,NA
"A2SR85I8JMO1ZZ","Sat Oct 03 2020 18:06:51 GMT-0500 (Central Daylight Time)","Sat Oct 03 2020 18:13:04 GMT-0500 (Central Daylight Time)","Mozilla/5.0 (Macintosh; Intel Mac OS X 10_14_4) AppleWebKit/537.36 (KHTML, like Gecko) Chrome/78.0.3904.108 Safari/537.36",51,"[0.9, 0.5, 0.1]","[0.8, 0.4, 0.2]","[u'red', u'black', u'blue']","[u'left', u'middle', u'right']","[0.9, 0.5, 0.1]","[u'high', u'low', u'medium']","red",49,"left","high","True","True",117,2700,NA
"A2SR85I8JMO1ZZ","Sat Oct 03 2020 18:06:51 GMT-0500 (Central Daylight Time)","Sat Oct 03 2020 18:13:04 GMT-0500 (Central Daylight Time)","Mozilla/5.0 (Macintosh; Intel Mac OS X 10_14_4) AppleWebKit/537.36 (KHTML, like Gecko) Chrome/78.0.3904.108 Safari/537.36",52,"[0.9, 0.5, 0.1]","[0.8, 0.4, 0.2]","[u'red', u'black', u'blue']","[u'left', u'middle', u'right']","[0.9, 0.5, 0.1]","[u'low', u'high', u'medium']","red",49,"left","low","False","False",57,2650,NA
"A2SR85I8JMO1ZZ","Sat Oct 03 2020 18:06:51 GMT-0500 (Central Daylight Time)","Sat Oct 03 2020 18:13:04 GMT-0500 (Central Daylight Time)","Mozilla/5.0 (Macintosh; Intel Mac OS X 10_14_4) AppleWebKit/537.36 (KHTML, like Gecko) Chrome/78.0.3904.108 Safari/537.36",53,"[0.9, 0.5, 0.1]","[0.8, 0.4, 0.2]","[u'red', u'black', u'blue']","[u'left', u'middle', u'right']","[0.9, 0.5, 0.1]","[u'low', u'high', u'medium']","red",49,"left","low","False","False",4,2600,NA
"A2SR85I8JMO1ZZ","Sat Oct 03 2020 18:06:51 GMT-0500 (Central Daylight Time)","Sat Oct 03 2020 18:13:04 GMT-0500 (Central Daylight Time)","Mozilla/5.0 (Macintosh; Intel Mac OS X 10_14_4) AppleWebKit/537.36 (KHTML, like Gecko) Chrome/78.0.3904.108 Safari/537.36",54,"[0.9, 0.5, 0.1]","[0.8, 0.4, 0.2]","[u'red', u'black', u'blue']","[u'left', u'middle', u'right']","[0.9, 0.5, 0.1]","[u'low', u'high', u'medium']","black",50,"middle","high","True","False",371,2700,NA
"A2SR85I8JMO1ZZ","Sat Oct 03 2020 18:06:51 GMT-0500 (Central Daylight Time)","Sat Oct 03 2020 18:13:04 GMT-0500 (Central Daylight Time)","Mozilla/5.0 (Macintosh; Intel Mac OS X 10_14_4) AppleWebKit/537.36 (KHTML, like Gecko) Chrome/78.0.3904.108 Safari/537.36",55,"[0.9, 0.5, 0.1]","[0.8, 0.4, 0.2]","[u'red', u'black', u'blue']","[u'left', u'middle', u'right']","[0.9, 0.5, 0.1]","[u'low', u'high', u'medium']","black",50,"middle","high","True","False",200,2800,NA
"A2SR85I8JMO1ZZ","Sat Oct 03 2020 18:06:51 GMT-0500 (Central Daylight Time)","Sat Oct 03 2020 18:13:04 GMT-0500 (Central Daylight Time)","Mozilla/5.0 (Macintosh; Intel Mac OS X 10_14_4) AppleWebKit/537.36 (KHTML, like Gecko) Chrome/78.0.3904.108 Safari/537.36",56,"[0.9, 0.5, 0.1]","[0.8, 0.4, 0.2]","[u'red', u'black', u'blue']","[u'left', u'middle', u'right']","[0.9, 0.5, 0.1]","[u'low', u'high', u'medium']","black",50,"middle","high","True","False",98,2900,NA
"A2SR85I8JMO1ZZ","Sat Oct 03 2020 18:06:51 GMT-0500 (Central Daylight Time)","Sat Oct 03 2020 18:13:04 GMT-0500 (Central Daylight Time)","Mozilla/5.0 (Macintosh; Intel Mac OS X 10_14_4) AppleWebKit/537.36 (KHTML, like Gecko) Chrome/78.0.3904.108 Safari/537.36",57,"[0.9, 0.5, 0.1]","[0.8, 0.4, 0.2]","[u'red', u'black', u'blue']","[u'left', u'middle', u'right']","[0.9, 0.5, 0.1]","[u'low', u'high', u'medium']","black",50,"middle","high","True","False",89,3000,NA
"A2SR85I8JMO1ZZ","Sat Oct 03 2020 18:06:51 GMT-0500 (Central Daylight Time)","Sat Oct 03 2020 18:13:04 GMT-0500 (Central Daylight Time)","Mozilla/5.0 (Macintosh; Intel Mac OS X 10_14_4) AppleWebKit/537.36 (KHTML, like Gecko) Chrome/78.0.3904.108 Safari/537.36",58,"[0.9, 0.5, 0.1]","[0.8, 0.4, 0.2]","[u'red', u'black', u'blue']","[u'left', u'middle', u'right']","[0.9, 0.5, 0.1]","[u'low', u'high', u'medium']","black",50,"middle","high","True","False",98,3100,NA
"A2SR85I8JMO1ZZ","Sat Oct 03 2020 18:06:51 GMT-0500 (Central Daylight Time)","Sat Oct 03 2020 18:13:04 GMT-0500 (Central Daylight Time)","Mozilla/5.0 (Macintosh; Intel Mac OS X 10_14_4) AppleWebKit/537.36 (KHTML, like Gecko) Chrome/78.0.3904.108 Safari/537.36",59,"[0.9, 0.5, 0.1]","[0.8, 0.4, 0.2]","[u'red', u'black', u'blue']","[u'left', u'middle', u'right']","[0.9, 0.5, 0.1]","[u'low', u'high', u'medium']","black",50,"middle","high","True","False",33,3200,NA
"A2SR85I8JMO1ZZ","Sat Oct 03 2020 18:06:51 GMT-0500 (Central Daylight Time)","Sat Oct 03 2020 18:13:04 GMT-0500 (Central Daylight Time)","Mozilla/5.0 (Macintosh; Intel Mac OS X 10_14_4) AppleWebKit/537.36 (KHTML, like Gecko) Chrome/78.0.3904.108 Safari/537.36",60,"[0.9, 0.5, 0.1]","[0.8, 0.4, 0.2]","[u'red', u'black', u'blue']","[u'left', u'middle', u'right']","[0.9, 0.5, 0.1]","[u'low', u'high', u'medium']","black",50,"middle","high","True","False",67,3300,NA
"A2SR85I8JMO1ZZ","Sat Oct 03 2020 18:06:51 GMT-0500 (Central Daylight Time)","Sat Oct 03 2020 18:13:04 GMT-0500 (Central Daylight Time)","Mozilla/5.0 (Macintosh; Intel Mac OS X 10_14_4) AppleWebKit/537.36 (KHTML, like Gecko) Chrome/78.0.3904.108 Safari/537.36",61,"[0.9, 0.5, 0.1]","[0.8, 0.4, 0.2]","[u'red', u'black', u'blue']","[u'left', u'middle', u'right']","[0.9, 0.5, 0.1]","[u'low', u'high', u'medium']","black",50,"middle","high","True","False",68,3400,NA
"A2SR85I8JMO1ZZ","Sat Oct 03 2020 18:06:51 GMT-0500 (Central Daylight Time)","Sat Oct 03 2020 18:13:04 GMT-0500 (Central Daylight Time)","Mozilla/5.0 (Macintosh; Intel Mac OS X 10_14_4) AppleWebKit/537.36 (KHTML, like Gecko) Chrome/78.0.3904.108 Safari/537.36",62,"[0.9, 0.5, 0.1]","[0.8, 0.4, 0.2]","[u'red', u'black', u'blue']","[u'left', u'middle', u'right']","[0.9, 0.5, 0.1]","[u'low', u'high', u'medium']","black",50,"middle","high","True","True",27,3500,NA
"A2SR85I8JMO1ZZ","Sat Oct 03 2020 18:06:51 GMT-0500 (Central Daylight Time)","Sat Oct 03 2020 18:13:04 GMT-0500 (Central Daylight Time)","Mozilla/5.0 (Macintosh; Intel Mac OS X 10_14_4) AppleWebKit/537.36 (KHTML, like Gecko) Chrome/78.0.3904.108 Safari/537.36",63,"[0.9, 0.5, 0.1]","[0.8, 0.4, 0.2]","[u'red', u'black', u'blue']","[u'left', u'middle', u'right']","[0.9, 0.5, 0.1]","[u'medium', u'low', u'high']","black",50,"middle","low","False","False",166,3450,NA
"A2SR85I8JMO1ZZ","Sat Oct 03 2020 18:06:51 GMT-0500 (Central Daylight Time)","Sat Oct 03 2020 18:13:04 GMT-0500 (Central Daylight Time)","Mozilla/5.0 (Macintosh; Intel Mac OS X 10_14_4) AppleWebKit/537.36 (KHTML, like Gecko) Chrome/78.0.3904.108 Safari/537.36",64,"[0.9, 0.5, 0.1]","[0.8, 0.4, 0.2]","[u'red', u'black', u'blue']","[u'left', u'middle', u'right']","[0.9, 0.5, 0.1]","[u'medium', u'low', u'high']","black",50,"middle","low","False","False",380,3400,NA
"A2SR85I8JMO1ZZ","Sat Oct 03 2020 18:06:51 GMT-0500 (Central Daylight Time)","Sat Oct 03 2020 18:13:04 GMT-0500 (Central Daylight Time)","Mozilla/5.0 (Macintosh; Intel Mac OS X 10_14_4) AppleWebKit/537.36 (KHTML, like Gecko) Chrome/78.0.3904.108 Safari/537.36",65,"[0.9, 0.5, 0.1]","[0.8, 0.4, 0.2]","[u'red', u'black', u'blue']","[u'left', u'middle', u'right']","[0.9, 0.5, 0.1]","[u'medium', u'low', u'high']","red",49,"left","medium","True","False",237,3500,NA
"A2SR85I8JMO1ZZ","Sat Oct 03 2020 18:06:51 GMT-0500 (Central Daylight Time)","Sat Oct 03 2020 18:13:04 GMT-0500 (Central Daylight Time)","Mozilla/5.0 (Macintosh; Intel Mac OS X 10_14_4) AppleWebKit/537.36 (KHTML, like Gecko) Chrome/78.0.3904.108 Safari/537.36",66,"[0.9, 0.5, 0.1]","[0.8, 0.4, 0.2]","[u'red', u'black', u'blue']","[u'left', u'middle', u'right']","[0.9, 0.5, 0.1]","[u'medium', u'low', u'high']","red",49,"left","medium","False","False",29,3450,NA
"A2SR85I8JMO1ZZ","Sat Oct 03 2020 18:06:51 GMT-0500 (Central Daylight Time)","Sat Oct 03 2020 18:13:04 GMT-0500 (Central Daylight Time)","Mozilla/5.0 (Macintosh; Intel Mac OS X 10_14_4) AppleWebKit/537.36 (KHTML, like Gecko) Chrome/78.0.3904.108 Safari/537.36",67,"[0.9, 0.5, 0.1]","[0.8, 0.4, 0.2]","[u'red', u'black', u'blue']","[u'left', u'middle', u'right']","[0.9, 0.5, 0.1]","[u'medium', u'low', u'high']","black",50,"middle","low","False","False",68,3400,NA
"A2SR85I8JMO1ZZ","Sat Oct 03 2020 18:06:51 GMT-0500 (Central Daylight Time)","Sat Oct 03 2020 18:13:04 GMT-0500 (Central Daylight Time)","Mozilla/5.0 (Macintosh; Intel Mac OS X 10_14_4) AppleWebKit/537.36 (KHTML, like Gecko) Chrome/78.0.3904.108 Safari/537.36",68,"[0.9, 0.5, 0.1]","[0.8, 0.4, 0.2]","[u'red', u'black', u'blue']","[u'left', u'middle', u'right']","[0.9, 0.5, 0.1]","[u'medium', u'low', u'high']","red",49,"left","medium","True","False",430,3500,NA
"A2SR85I8JMO1ZZ","Sat Oct 03 2020 18:06:51 GMT-0500 (Central Daylight Time)","Sat Oct 03 2020 18:13:04 GMT-0500 (Central Daylight Time)","Mozilla/5.0 (Macintosh; Intel Mac OS X 10_14_4) AppleWebKit/537.36 (KHTML, like Gecko) Chrome/78.0.3904.108 Safari/537.36",69,"[0.9, 0.5, 0.1]","[0.8, 0.4, 0.2]","[u'red', u'black', u'blue']","[u'left', u'middle', u'right']","[0.9, 0.5, 0.1]","[u'medium', u'low', u'high']","red",49,"left","medium","True","False",156,3600,NA
"A2SR85I8JMO1ZZ","Sat Oct 03 2020 18:06:51 GMT-0500 (Central Daylight Time)","Sat Oct 03 2020 18:13:04 GMT-0500 (Central Daylight Time)","Mozilla/5.0 (Macintosh; Intel Mac OS X 10_14_4) AppleWebKit/537.36 (KHTML, like Gecko) Chrome/78.0.3904.108 Safari/537.36",70,"[0.9, 0.5, 0.1]","[0.8, 0.4, 0.2]","[u'red', u'black', u'blue']","[u'left', u'middle', u'right']","[0.9, 0.5, 0.1]","[u'medium', u'low', u'high']","red",49,"left","medium","True","False",289,3700,NA
"A2SR85I8JMO1ZZ","Sat Oct 03 2020 18:06:51 GMT-0500 (Central Daylight Time)","Sat Oct 03 2020 18:13:04 GMT-0500 (Central Daylight Time)","Mozilla/5.0 (Macintosh; Intel Mac OS X 10_14_4) AppleWebKit/537.36 (KHTML, like Gecko) Chrome/78.0.3904.108 Safari/537.36",71,"[0.9, 0.5, 0.1]","[0.8, 0.4, 0.2]","[u'red', u'black', u'blue']","[u'left', u'middle', u'right']","[0.9, 0.5, 0.1]","[u'medium', u'low', u'high']","red",49,"left","medium","False","False",221,3650,NA
"A2SR85I8JMO1ZZ","Sat Oct 03 2020 18:06:51 GMT-0500 (Central Daylight Time)","Sat Oct 03 2020 18:13:04 GMT-0500 (Central Daylight Time)","Mozilla/5.0 (Macintosh; Intel Mac OS X 10_14_4) AppleWebKit/537.36 (KHTML, like Gecko) Chrome/78.0.3904.108 Safari/537.36",72,"[0.9, 0.5, 0.1]","[0.8, 0.4, 0.2]","[u'red', u'black', u'blue']","[u'left', u'middle', u'right']","[0.9, 0.5, 0.1]","[u'medium', u'low', u'high']","black",50,"middle","low","False","False",156,3600,NA
"A2SR85I8JMO1ZZ","Sat Oct 03 2020 18:06:51 GMT-0500 (Central Daylight Time)","Sat Oct 03 2020 18:13:04 GMT-0500 (Central Daylight Time)","Mozilla/5.0 (Macintosh; Intel Mac OS X 10_14_4) AppleWebKit/537.36 (KHTML, like Gecko) Chrome/78.0.3904.108 Safari/537.36",73,"[0.9, 0.5, 0.1]","[0.8, 0.4, 0.2]","[u'red', u'black', u'blue']","[u'left', u'middle', u'right']","[0.9, 0.5, 0.1]","[u'medium', u'low', u'high']","red",49,"left","medium","False","False",65,3550,NA
"A2SR85I8JMO1ZZ","Sat Oct 03 2020 18:06:51 GMT-0500 (Central Daylight Time)","Sat Oct 03 2020 18:13:04 GMT-0500 (Central Daylight Time)","Mozilla/5.0 (Macintosh; Intel Mac OS X 10_14_4) AppleWebKit/537.36 (KHTML, like Gecko) Chrome/78.0.3904.108 Safari/537.36",74,"[0.9, 0.5, 0.1]","[0.8, 0.4, 0.2]","[u'red', u'black', u'blue']","[u'left', u'middle', u'right']","[0.9, 0.5, 0.1]","[u'medium', u'low', u'high']","black",50,"middle","low","False","False",8,3500,NA
"A2SR85I8JMO1ZZ","Sat Oct 03 2020 18:06:51 GMT-0500 (Central Daylight Time)","Sat Oct 03 2020 18:13:04 GMT-0500 (Central Daylight Time)","Mozilla/5.0 (Macintosh; Intel Mac OS X 10_14_4) AppleWebKit/537.36 (KHTML, like Gecko) Chrome/78.0.3904.108 Safari/537.36",75,"[0.9, 0.5, 0.1]","[0.8, 0.4, 0.2]","[u'red', u'black', u'blue']","[u'left', u'middle', u'right']","[0.9, 0.5, 0.1]","[u'medium', u'low', u'high']","blue",51,"right","high","True","False",364,3600,NA
"A2SR85I8JMO1ZZ","Sat Oct 03 2020 18:06:51 GMT-0500 (Central Daylight Time)","Sat Oct 03 2020 18:13:04 GMT-0500 (Central Daylight Time)","Mozilla/5.0 (Macintosh; Intel Mac OS X 10_14_4) AppleWebKit/537.36 (KHTML, like Gecko) Chrome/78.0.3904.108 Safari/537.36",76,"[0.9, 0.5, 0.1]","[0.8, 0.4, 0.2]","[u'red', u'black', u'blue']","[u'left', u'middle', u'right']","[0.9, 0.5, 0.1]","[u'medium', u'low', u'high']","blue",51,"right","high","True","False",291,3700,NA
"A2SR85I8JMO1ZZ","Sat Oct 03 2020 18:06:51 GMT-0500 (Central Daylight Time)","Sat Oct 03 2020 18:13:04 GMT-0500 (Central Daylight Time)","Mozilla/5.0 (Macintosh; Intel Mac OS X 10_14_4) AppleWebKit/537.36 (KHTML, like Gecko) Chrome/78.0.3904.108 Safari/537.36",77,"[0.9, 0.5, 0.1]","[0.8, 0.4, 0.2]","[u'red', u'black', u'blue']","[u'left', u'middle', u'right']","[0.9, 0.5, 0.1]","[u'medium', u'low', u'high']","blue",51,"right","high","True","False",136,3800,NA
"A2SR85I8JMO1ZZ","Sat Oct 03 2020 18:06:51 GMT-0500 (Central Daylight Time)","Sat Oct 03 2020 18:13:04 GMT-0500 (Central Daylight Time)","Mozilla/5.0 (Macintosh; Intel Mac OS X 10_14_4) AppleWebKit/537.36 (KHTML, like Gecko) Chrome/78.0.3904.108 Safari/537.36",78,"[0.9, 0.5, 0.1]","[0.8, 0.4, 0.2]","[u'red', u'black', u'blue']","[u'left', u'middle', u'right']","[0.9, 0.5, 0.1]","[u'medium', u'low', u'high']","blue",51,"right","high","True","False",78,3900,NA
"A2SR85I8JMO1ZZ","Sat Oct 03 2020 18:06:51 GMT-0500 (Central Daylight Time)","Sat Oct 03 2020 18:13:04 GMT-0500 (Central Daylight Time)","Mozilla/5.0 (Macintosh; Intel Mac OS X 10_14_4) AppleWebKit/537.36 (KHTML, like Gecko) Chrome/78.0.3904.108 Safari/537.36",79,"[0.9, 0.5, 0.1]","[0.8, 0.4, 0.2]","[u'red', u'black', u'blue']","[u'left', u'middle', u'right']","[0.9, 0.5, 0.1]","[u'medium', u'low', u'high']","blue",51,"right","high","True","False",533,4000,NA
"A2SR85I8JMO1ZZ","Sat Oct 03 2020 18:06:51 GMT-0500 (Central Daylight Time)","Sat Oct 03 2020 18:13:04 GMT-0500 (Central Daylight Time)","Mozilla/5.0 (Macintosh; Intel Mac OS X 10_14_4) AppleWebKit/537.36 (KHTML, like Gecko) Chrome/78.0.3904.108 Safari/537.36",80,"[0.9, 0.5, 0.1]","[0.8, 0.4, 0.2]","[u'red', u'black', u'blue']","[u'left', u'middle', u'right']","[0.9, 0.5, 0.1]","[u'medium', u'low', u'high']","blue",51,"right","high","True","False",797,4100,NA
"A2SR85I8JMO1ZZ","Sat Oct 03 2020 18:06:51 GMT-0500 (Central Daylight Time)","Sat Oct 03 2020 18:13:04 GMT-0500 (Central Daylight Time)","Mozilla/5.0 (Macintosh; Intel Mac OS X 10_14_4) AppleWebKit/537.36 (KHTML, like Gecko) Chrome/78.0.3904.108 Safari/537.36",81,"[0.9, 0.5, 0.1]","[0.8, 0.4, 0.2]","[u'red', u'black', u'blue']","[u'left', u'middle', u'right']","[0.8, 0.4, 0.2]","[u'low', u'high', u'medium']","blue",51,"right","medium","False","False",395,4050,NA
"A2SR85I8JMO1ZZ","Sat Oct 03 2020 18:06:51 GMT-0500 (Central Daylight Time)","Sat Oct 03 2020 18:13:04 GMT-0500 (Central Daylight Time)","Mozilla/5.0 (Macintosh; Intel Mac OS X 10_14_4) AppleWebKit/537.36 (KHTML, like Gecko) Chrome/78.0.3904.108 Safari/537.36",82,"[0.9, 0.5, 0.1]","[0.8, 0.4, 0.2]","[u'red', u'black', u'blue']","[u'left', u'middle', u'right']","[0.8, 0.4, 0.2]","[u'low', u'high', u'medium']","red",49,"left","low","False","False",96,4000,NA
"A2SR85I8JMO1ZZ","Sat Oct 03 2020 18:06:51 GMT-0500 (Central Daylight Time)","Sat Oct 03 2020 18:13:04 GMT-0500 (Central Daylight Time)","Mozilla/5.0 (Macintosh; Intel Mac OS X 10_14_4) AppleWebKit/537.36 (KHTML, like Gecko) Chrome/78.0.3904.108 Safari/537.36",83,"[0.9, 0.5, 0.1]","[0.8, 0.4, 0.2]","[u'red', u'black', u'blue']","[u'left', u'middle', u'right']","[0.8, 0.4, 0.2]","[u'low', u'high', u'medium']","black",50,"middle","high","True","False",74,4100,NA
"A2SR85I8JMO1ZZ","Sat Oct 03 2020 18:06:51 GMT-0500 (Central Daylight Time)","Sat Oct 03 2020 18:13:04 GMT-0500 (Central Daylight Time)","Mozilla/5.0 (Macintosh; Intel Mac OS X 10_14_4) AppleWebKit/537.36 (KHTML, like Gecko) Chrome/78.0.3904.108 Safari/537.36",84,"[0.9, 0.5, 0.1]","[0.8, 0.4, 0.2]","[u'red', u'black', u'blue']","[u'left', u'middle', u'right']","[0.8, 0.4, 0.2]","[u'low', u'high', u'medium']","black",50,"middle","high","True","False",257,4200,NA
"A2SR85I8JMO1ZZ","Sat Oct 03 2020 18:06:51 GMT-0500 (Central Daylight Time)","Sat Oct 03 2020 18:13:04 GMT-0500 (Central Daylight Time)","Mozilla/5.0 (Macintosh; Intel Mac OS X 10_14_4) AppleWebKit/537.36 (KHTML, like Gecko) Chrome/78.0.3904.108 Safari/537.36",85,"[0.9, 0.5, 0.1]","[0.8, 0.4, 0.2]","[u'red', u'black', u'blue']","[u'left', u'middle', u'right']","[0.8, 0.4, 0.2]","[u'low', u'high', u'medium']","black",50,"middle","high","True","False",686,4300,NA
"A2SR85I8JMO1ZZ","Sat Oct 03 2020 18:06:51 GMT-0500 (Central Daylight Time)","Sat Oct 03 2020 18:13:04 GMT-0500 (Central Daylight Time)","Mozilla/5.0 (Macintosh; Intel Mac OS X 10_14_4) AppleWebKit/537.36 (KHTML, like Gecko) Chrome/78.0.3904.108 Safari/537.36",86,"[0.9, 0.5, 0.1]","[0.8, 0.4, 0.2]","[u'red', u'black', u'blue']","[u'left', u'middle', u'right']","[0.8, 0.4, 0.2]","[u'low', u'high', u'medium']","black",50,"middle","high","False","False",654,4250,NA
"A2SR85I8JMO1ZZ","Sat Oct 03 2020 18:06:51 GMT-0500 (Central Daylight Time)","Sat Oct 03 2020 18:13:04 GMT-0500 (Central Daylight Time)","Mozilla/5.0 (Macintosh; Intel Mac OS X 10_14_4) AppleWebKit/537.36 (KHTML, like Gecko) Chrome/78.0.3904.108 Safari/537.36",87,"[0.9, 0.5, 0.1]","[0.8, 0.4, 0.2]","[u'red', u'black', u'blue']","[u'left', u'middle', u'right']","[0.8, 0.4, 0.2]","[u'low', u'high', u'medium']","red",49,"left","low","False","False",107,4200,NA
"A2SR85I8JMO1ZZ","Sat Oct 03 2020 18:06:51 GMT-0500 (Central Daylight Time)","Sat Oct 03 2020 18:13:04 GMT-0500 (Central Daylight Time)","Mozilla/5.0 (Macintosh; Intel Mac OS X 10_14_4) AppleWebKit/537.36 (KHTML, like Gecko) Chrome/78.0.3904.108 Safari/537.36",88,"[0.9, 0.5, 0.1]","[0.8, 0.4, 0.2]","[u'red', u'black', u'blue']","[u'left', u'middle', u'right']","[0.8, 0.4, 0.2]","[u'low', u'high', u'medium']","black",50,"middle","high","True","False",322,4300,NA
"A2SR85I8JMO1ZZ","Sat Oct 03 2020 18:06:51 GMT-0500 (Central Daylight Time)","Sat Oct 03 2020 18:13:04 GMT-0500 (Central Daylight Time)","Mozilla/5.0 (Macintosh; Intel Mac OS X 10_14_4) AppleWebKit/537.36 (KHTML, like Gecko) Chrome/78.0.3904.108 Safari/537.36",89,"[0.9, 0.5, 0.1]","[0.8, 0.4, 0.2]","[u'red', u'black', u'blue']","[u'left', u'middle', u'right']","[0.8, 0.4, 0.2]","[u'low', u'high', u'medium']","black",50,"middle","high","True","False",310,4400,NA
"A2SR85I8JMO1ZZ","Sat Oct 03 2020 18:06:51 GMT-0500 (Central Daylight Time)","Sat Oct 03 2020 18:13:04 GMT-0500 (Central Daylight Time)","Mozilla/5.0 (Macintosh; Intel Mac OS X 10_14_4) AppleWebKit/537.36 (KHTML, like Gecko) Chrome/78.0.3904.108 Safari/537.36",90,"[0.9, 0.5, 0.1]","[0.8, 0.4, 0.2]","[u'red', u'black', u'blue']","[u'left', u'middle', u'right']","[0.8, 0.4, 0.2]","[u'low', u'high', u'medium']","black",50,"middle","high","True","False",118,4500,NA
"A2SR85I8JMO1ZZ","Sat Oct 03 2020 18:06:51 GMT-0500 (Central Daylight Time)","Sat Oct 03 2020 18:13:04 GMT-0500 (Central Daylight Time)","Mozilla/5.0 (Macintosh; Intel Mac OS X 10_14_4) AppleWebKit/537.36 (KHTML, like Gecko) Chrome/78.0.3904.108 Safari/537.36",91,"[0.9, 0.5, 0.1]","[0.8, 0.4, 0.2]","[u'red', u'black', u'blue']","[u'left', u'middle', u'right']","[0.8, 0.4, 0.2]","[u'low', u'high', u'medium']","black",50,"middle","high","True","False",74,4600,NA
"A2SR85I8JMO1ZZ","Sat Oct 03 2020 18:06:51 GMT-0500 (Central Daylight Time)","Sat Oct 03 2020 18:13:04 GMT-0500 (Central Daylight Time)","Mozilla/5.0 (Macintosh; Intel Mac OS X 10_14_4) AppleWebKit/537.36 (KHTML, like Gecko) Chrome/78.0.3904.108 Safari/537.36",92,"[0.9, 0.5, 0.1]","[0.8, 0.4, 0.2]","[u'red', u'black', u'blue']","[u'left', u'middle', u'right']","[0.8, 0.4, 0.2]","[u'low', u'high', u'medium']","black",50,"middle","high","True","True",99,4700,NA
"A2SR85I8JMO1ZZ","Sat Oct 03 2020 18:06:51 GMT-0500 (Central Daylight Time)","Sat Oct 03 2020 18:13:04 GMT-0500 (Central Daylight Time)","Mozilla/5.0 (Macintosh; Intel Mac OS X 10_14_4) AppleWebKit/537.36 (KHTML, like Gecko) Chrome/78.0.3904.108 Safari/537.36",93,"[0.9, 0.5, 0.1]","[0.8, 0.4, 0.2]","[u'red', u'black', u'blue']","[u'left', u'middle', u'right']","[0.8, 0.4, 0.2]","[u'low', u'medium', u'high']","black",50,"middle","medium","False","False",790,4650,NA
"A2SR85I8JMO1ZZ","Sat Oct 03 2020 18:06:51 GMT-0500 (Central Daylight Time)","Sat Oct 03 2020 18:13:04 GMT-0500 (Central Daylight Time)","Mozilla/5.0 (Macintosh; Intel Mac OS X 10_14_4) AppleWebKit/537.36 (KHTML, like Gecko) Chrome/78.0.3904.108 Safari/537.36",94,"[0.9, 0.5, 0.1]","[0.8, 0.4, 0.2]","[u'red', u'black', u'blue']","[u'left', u'middle', u'right']","[0.8, 0.4, 0.2]","[u'low', u'medium', u'high']","black",50,"middle","medium","True","False",456,4750,NA
"A2SR85I8JMO1ZZ","Sat Oct 03 2020 18:06:51 GMT-0500 (Central Daylight Time)","Sat Oct 03 2020 18:13:04 GMT-0500 (Central Daylight Time)","Mozilla/5.0 (Macintosh; Intel Mac OS X 10_14_4) AppleWebKit/537.36 (KHTML, like Gecko) Chrome/78.0.3904.108 Safari/537.36",95,"[0.9, 0.5, 0.1]","[0.8, 0.4, 0.2]","[u'red', u'black', u'blue']","[u'left', u'middle', u'right']","[0.8, 0.4, 0.2]","[u'low', u'medium', u'high']","black",50,"middle","medium","True","False",154,4850,NA
"A2SR85I8JMO1ZZ","Sat Oct 03 2020 18:06:51 GMT-0500 (Central Daylight Time)","Sat Oct 03 2020 18:13:04 GMT-0500 (Central Daylight Time)","Mozilla/5.0 (Macintosh; Intel Mac OS X 10_14_4) AppleWebKit/537.36 (KHTML, like Gecko) Chrome/78.0.3904.108 Safari/537.36",96,"[0.9, 0.5, 0.1]","[0.8, 0.4, 0.2]","[u'red', u'black', u'blue']","[u'left', u'middle', u'right']","[0.8, 0.4, 0.2]","[u'low', u'medium', u'high']","black",50,"middle","medium","False","False",100,4800,NA
"A2SR85I8JMO1ZZ","Sat Oct 03 2020 18:06:51 GMT-0500 (Central Daylight Time)","Sat Oct 03 2020 18:13:04 GMT-0500 (Central Daylight Time)","Mozilla/5.0 (Macintosh; Intel Mac OS X 10_14_4) AppleWebKit/537.36 (KHTML, like Gecko) Chrome/78.0.3904.108 Safari/537.36",97,"[0.9, 0.5, 0.1]","[0.8, 0.4, 0.2]","[u'red', u'black', u'blue']","[u'left', u'middle', u'right']","[0.8, 0.4, 0.2]","[u'low', u'medium', u'high']","black",50,"middle","medium","False","False",30,4750,NA
"A2SR85I8JMO1ZZ","Sat Oct 03 2020 18:06:51 GMT-0500 (Central Daylight Time)","Sat Oct 03 2020 18:13:04 GMT-0500 (Central Daylight Time)","Mozilla/5.0 (Macintosh; Intel Mac OS X 10_14_4) AppleWebKit/537.36 (KHTML, like Gecko) Chrome/78.0.3904.108 Safari/537.36",98,"[0.9, 0.5, 0.1]","[0.8, 0.4, 0.2]","[u'red', u'black', u'blue']","[u'left', u'middle', u'right']","[0.8, 0.4, 0.2]","[u'low', u'medium', u'high']","blue",51,"right","high","True","False",178,4850,NA
"A2SR85I8JMO1ZZ","Sat Oct 03 2020 18:06:51 GMT-0500 (Central Daylight Time)","Sat Oct 03 2020 18:13:04 GMT-0500 (Central Daylight Time)","Mozilla/5.0 (Macintosh; Intel Mac OS X 10_14_4) AppleWebKit/537.36 (KHTML, like Gecko) Chrome/78.0.3904.108 Safari/537.36",99,"[0.9, 0.5, 0.1]","[0.8, 0.4, 0.2]","[u'red', u'black', u'blue']","[u'left', u'middle', u'right']","[0.8, 0.4, 0.2]","[u'low', u'medium', u'high']","blue",51,"right","high","True","False",142,4950,NA
"A2SR85I8JMO1ZZ","Sat Oct 03 2020 18:06:51 GMT-0500 (Central Daylight Time)","Sat Oct 03 2020 18:13:04 GMT-0500 (Central Daylight Time)","Mozilla/5.0 (Macintosh; Intel Mac OS X 10_14_4) AppleWebKit/537.36 (KHTML, like Gecko) Chrome/78.0.3904.108 Safari/537.36",100,"[0.9, 0.5, 0.1]","[0.8, 0.4, 0.2]","[u'red', u'black', u'blue']","[u'left', u'middle', u'right']","[0.8, 0.4, 0.2]","[u'low', u'medium', u'high']","blue",51,"right","high","True","False",96,5050,NA
"A2SR85I8JMO1ZZ","Sat Oct 03 2020 18:06:51 GMT-0500 (Central Daylight Time)","Sat Oct 03 2020 18:13:04 GMT-0500 (Central Daylight Time)","Mozilla/5.0 (Macintosh; Intel Mac OS X 10_14_4) AppleWebKit/537.36 (KHTML, like Gecko) Chrome/78.0.3904.108 Safari/537.36",101,"[0.9, 0.5, 0.1]","[0.8, 0.4, 0.2]","[u'red', u'black', u'blue']","[u'left', u'middle', u'right']","[0.8, 0.4, 0.2]","[u'low', u'medium', u'high']","blue",51,"right","high","False","False",71,5000,NA
"A2SR85I8JMO1ZZ","Sat Oct 03 2020 18:06:51 GMT-0500 (Central Daylight Time)","Sat Oct 03 2020 18:13:04 GMT-0500 (Central Daylight Time)","Mozilla/5.0 (Macintosh; Intel Mac OS X 10_14_4) AppleWebKit/537.36 (KHTML, like Gecko) Chrome/78.0.3904.108 Safari/537.36",102,"[0.9, 0.5, 0.1]","[0.8, 0.4, 0.2]","[u'red', u'black', u'blue']","[u'left', u'middle', u'right']","[0.8, 0.4, 0.2]","[u'low', u'medium', u'high']","blue",51,"right","high","True","False",125,5100,NA
"A2SR85I8JMO1ZZ","Sat Oct 03 2020 18:06:51 GMT-0500 (Central Daylight Time)","Sat Oct 03 2020 18:13:04 GMT-0500 (Central Daylight Time)","Mozilla/5.0 (Macintosh; Intel Mac OS X 10_14_4) AppleWebKit/537.36 (KHTML, like Gecko) Chrome/78.0.3904.108 Safari/537.36",103,"[0.9, 0.5, 0.1]","[0.8, 0.4, 0.2]","[u'red', u'black', u'blue']","[u'left', u'middle', u'right']","[0.8, 0.4, 0.2]","[u'low', u'medium', u'high']","blue",51,"right","high","True","False",10,5200,NA
"A2SR85I8JMO1ZZ","Sat Oct 03 2020 18:06:51 GMT-0500 (Central Daylight Time)","Sat Oct 03 2020 18:13:04 GMT-0500 (Central Daylight Time)","Mozilla/5.0 (Macintosh; Intel Mac OS X 10_14_4) AppleWebKit/537.36 (KHTML, like Gecko) Chrome/78.0.3904.108 Safari/537.36",104,"[0.9, 0.5, 0.1]","[0.8, 0.4, 0.2]","[u'red', u'black', u'blue']","[u'left', u'middle', u'right']","[0.8, 0.4, 0.2]","[u'low', u'medium', u'high']","blue",51,"right","high","False","False",28,5150,NA
"A2SR85I8JMO1ZZ","Sat Oct 03 2020 18:06:51 GMT-0500 (Central Daylight Time)","Sat Oct 03 2020 18:13:04 GMT-0500 (Central Daylight Time)","Mozilla/5.0 (Macintosh; Intel Mac OS X 10_14_4) AppleWebKit/537.36 (KHTML, like Gecko) Chrome/78.0.3904.108 Safari/537.36",105,"[0.9, 0.5, 0.1]","[0.8, 0.4, 0.2]","[u'red', u'black', u'blue']","[u'left', u'middle', u'right']","[0.8, 0.4, 0.2]","[u'low', u'medium', u'high']","blue",51,"right","high","True","False",388,5250,NA
"A2SR85I8JMO1ZZ","Sat Oct 03 2020 18:06:51 GMT-0500 (Central Daylight Time)","Sat Oct 03 2020 18:13:04 GMT-0500 (Central Daylight Time)","Mozilla/5.0 (Macintosh; Intel Mac OS X 10_14_4) AppleWebKit/537.36 (KHTML, like Gecko) Chrome/78.0.3904.108 Safari/537.36",106,"[0.9, 0.5, 0.1]","[0.8, 0.4, 0.2]","[u'red', u'black', u'blue']","[u'left', u'middle', u'right']","[0.8, 0.4, 0.2]","[u'low', u'medium', u'high']","blue",51,"right","high","True","True",21,5350,NA
"A2SR85I8JMO1ZZ","Sat Oct 03 2020 18:06:51 GMT-0500 (Central Daylight Time)","Sat Oct 03 2020 18:13:04 GMT-0500 (Central Daylight Time)","Mozilla/5.0 (Macintosh; Intel Mac OS X 10_14_4) AppleWebKit/537.36 (KHTML, like Gecko) Chrome/78.0.3904.108 Safari/537.36",107,"[0.9, 0.5, 0.1]","[0.8, 0.4, 0.2]","[u'red', u'black', u'blue']","[u'left', u'middle', u'right']","[0.8, 0.4, 0.2]","[u'high', u'medium', u'low']","blue",51,"right","low","False","False",29,5300,NA
"A2SR85I8JMO1ZZ","Sat Oct 03 2020 18:06:51 GMT-0500 (Central Daylight Time)","Sat Oct 03 2020 18:13:04 GMT-0500 (Central Daylight Time)","Mozilla/5.0 (Macintosh; Intel Mac OS X 10_14_4) AppleWebKit/537.36 (KHTML, like Gecko) Chrome/78.0.3904.108 Safari/537.36",108,"[0.9, 0.5, 0.1]","[0.8, 0.4, 0.2]","[u'red', u'black', u'blue']","[u'left', u'middle', u'right']","[0.8, 0.4, 0.2]","[u'high', u'medium', u'low']","blue",51,"right","low","False","False",218,5250,NA
"A2SR85I8JMO1ZZ","Sat Oct 03 2020 18:06:51 GMT-0500 (Central Daylight Time)","Sat Oct 03 2020 18:13:04 GMT-0500 (Central Daylight Time)","Mozilla/5.0 (Macintosh; Intel Mac OS X 10_14_4) AppleWebKit/537.36 (KHTML, like Gecko) Chrome/78.0.3904.108 Safari/537.36",109,"[0.9, 0.5, 0.1]","[0.8, 0.4, 0.2]","[u'red', u'black', u'blue']","[u'left', u'middle', u'right']","[0.8, 0.4, 0.2]","[u'high', u'medium', u'low']","red",49,"left","high","True","False",76,5350,NA
"A2SR85I8JMO1ZZ","Sat Oct 03 2020 18:06:51 GMT-0500 (Central Daylight Time)","Sat Oct 03 2020 18:13:04 GMT-0500 (Central Daylight Time)","Mozilla/5.0 (Macintosh; Intel Mac OS X 10_14_4) AppleWebKit/537.36 (KHTML, like Gecko) Chrome/78.0.3904.108 Safari/537.36",110,"[0.9, 0.5, 0.1]","[0.8, 0.4, 0.2]","[u'red', u'black', u'blue']","[u'left', u'middle', u'right']","[0.8, 0.4, 0.2]","[u'high', u'medium', u'low']","red",49,"left","high","False","False",417,5300,NA
"A2SR85I8JMO1ZZ","Sat Oct 03 2020 18:06:51 GMT-0500 (Central Daylight Time)","Sat Oct 03 2020 18:13:04 GMT-0500 (Central Daylight Time)","Mozilla/5.0 (Macintosh; Intel Mac OS X 10_14_4) AppleWebKit/537.36 (KHTML, like Gecko) Chrome/78.0.3904.108 Safari/537.36",111,"[0.9, 0.5, 0.1]","[0.8, 0.4, 0.2]","[u'red', u'black', u'blue']","[u'left', u'middle', u'right']","[0.8, 0.4, 0.2]","[u'high', u'medium', u'low']","red",49,"left","high","False","False",415,5250,NA
"A2SR85I8JMO1ZZ","Sat Oct 03 2020 18:06:51 GMT-0500 (Central Daylight Time)","Sat Oct 03 2020 18:13:04 GMT-0500 (Central Daylight Time)","Mozilla/5.0 (Macintosh; Intel Mac OS X 10_14_4) AppleWebKit/537.36 (KHTML, like Gecko) Chrome/78.0.3904.108 Safari/537.36",112,"[0.9, 0.5, 0.1]","[0.8, 0.4, 0.2]","[u'red', u'black', u'blue']","[u'left', u'middle', u'right']","[0.8, 0.4, 0.2]","[u'high', u'medium', u'low']","black",50,"middle","medium","False","False",141,5200,NA
"A2SR85I8JMO1ZZ","Sat Oct 03 2020 18:06:51 GMT-0500 (Central Daylight Time)","Sat Oct 03 2020 18:13:04 GMT-0500 (Central Daylight Time)","Mozilla/5.0 (Macintosh; Intel Mac OS X 10_14_4) AppleWebKit/537.36 (KHTML, like Gecko) Chrome/78.0.3904.108 Safari/537.36",113,"[0.9, 0.5, 0.1]","[0.8, 0.4, 0.2]","[u'red', u'black', u'blue']","[u'left', u'middle', u'right']","[0.8, 0.4, 0.2]","[u'high', u'medium', u'low']","blue",51,"right","low","False","False",38,5150,NA
"A2SR85I8JMO1ZZ","Sat Oct 03 2020 18:06:51 GMT-0500 (Central Daylight Time)","Sat Oct 03 2020 18:13:04 GMT-0500 (Central Daylight Time)","Mozilla/5.0 (Macintosh; Intel Mac OS X 10_14_4) AppleWebKit/537.36 (KHTML, like Gecko) Chrome/78.0.3904.108 Safari/537.36",114,"[0.9, 0.5, 0.1]","[0.8, 0.4, 0.2]","[u'red', u'black', u'blue']","[u'left', u'middle', u'right']","[0.8, 0.4, 0.2]","[u'high', u'medium', u'low']","red",49,"left","high","False","False",312,5100,NA
"A2SR85I8JMO1ZZ","Sat Oct 03 2020 18:06:51 GMT-0500 (Central Daylight Time)","Sat Oct 03 2020 18:13:04 GMT-0500 (Central Daylight Time)","Mozilla/5.0 (Macintosh; Intel Mac OS X 10_14_4) AppleWebKit/537.36 (KHTML, like Gecko) Chrome/78.0.3904.108 Safari/537.36",115,"[0.9, 0.5, 0.1]","[0.8, 0.4, 0.2]","[u'red', u'black', u'blue']","[u'left', u'middle', u'right']","[0.8, 0.4, 0.2]","[u'high', u'medium', u'low']","black",50,"middle","medium","False","False",16,5050,NA
"A2SR85I8JMO1ZZ","Sat Oct 03 2020 18:06:51 GMT-0500 (Central Daylight Time)","Sat Oct 03 2020 18:13:04 GMT-0500 (Central Daylight Time)","Mozilla/5.0 (Macintosh; Intel Mac OS X 10_14_4) AppleWebKit/537.36 (KHTML, like Gecko) Chrome/78.0.3904.108 Safari/537.36",116,"[0.9, 0.5, 0.1]","[0.8, 0.4, 0.2]","[u'red', u'black', u'blue']","[u'left', u'middle', u'right']","[0.8, 0.4, 0.2]","[u'high', u'medium', u'low']","blue",51,"right","low","False","False",195,5000,NA
"A2SR85I8JMO1ZZ","Sat Oct 03 2020 18:06:51 GMT-0500 (Central Daylight Time)","Sat Oct 03 2020 18:13:04 GMT-0500 (Central Daylight Time)","Mozilla/5.0 (Macintosh; Intel Mac OS X 10_14_4) AppleWebKit/537.36 (KHTML, like Gecko) Chrome/78.0.3904.108 Safari/537.36",117,"[0.9, 0.5, 0.1]","[0.8, 0.4, 0.2]","[u'red', u'black', u'blue']","[u'left', u'middle', u'right']","[0.8, 0.4, 0.2]","[u'high', u'medium', u'low']","black",50,"middle","medium","False","False",359,4950,NA
"A2SR85I8JMO1ZZ","Sat Oct 03 2020 18:06:51 GMT-0500 (Central Daylight Time)","Sat Oct 03 2020 18:13:04 GMT-0500 (Central Daylight Time)","Mozilla/5.0 (Macintosh; Intel Mac OS X 10_14_4) AppleWebKit/537.36 (KHTML, like Gecko) Chrome/78.0.3904.108 Safari/537.36",118,"[0.9, 0.5, 0.1]","[0.8, 0.4, 0.2]","[u'red', u'black', u'blue']","[u'left', u'middle', u'right']","[0.8, 0.4, 0.2]","[u'high', u'medium', u'low']","red",49,"left","high","False","False",97,4900,NA
"A2SR85I8JMO1ZZ","Sat Oct 03 2020 18:06:51 GMT-0500 (Central Daylight Time)","Sat Oct 03 2020 18:13:04 GMT-0500 (Central Daylight Time)","Mozilla/5.0 (Macintosh; Intel Mac OS X 10_14_4) AppleWebKit/537.36 (KHTML, like Gecko) Chrome/78.0.3904.108 Safari/537.36",119,"[0.9, 0.5, 0.1]","[0.8, 0.4, 0.2]","[u'red', u'black', u'blue']","[u'left', u'middle', u'right']","[0.8, 0.4, 0.2]","[u'high', u'medium', u'low']","blue",51,"right","low","True","False",166,5000,NA
"A2SR85I8JMO1ZZ","Sat Oct 03 2020 18:06:51 GMT-0500 (Central Daylight Time)","Sat Oct 03 2020 18:13:04 GMT-0500 (Central Daylight Time)","Mozilla/5.0 (Macintosh; Intel Mac OS X 10_14_4) AppleWebKit/537.36 (KHTML, like Gecko) Chrome/78.0.3904.108 Safari/537.36",120,"[0.9, 0.5, 0.1]","[0.8, 0.4, 0.2]","[u'red', u'black', u'blue']","[u'left', u'middle', u'right']","[0.8, 0.4, 0.2]","[u'high', u'medium', u'low']","blue",51,"right","low","False","False",288,4950,NA
"A2SR85I8JMO1ZZ","Sat Oct 03 2020 18:06:51 GMT-0500 (Central Daylight Time)","Sat Oct 03 2020 18:13:04 GMT-0500 (Central Daylight Time)","Mozilla/5.0 (Macintosh; Intel Mac OS X 10_14_4) AppleWebKit/537.36 (KHTML, like Gecko) Chrome/78.0.3904.108 Safari/537.36",121,"[0.9, 0.5, 0.1]","[0.8, 0.4, 0.2]","[u'red', u'black', u'blue']","[u'left', u'middle', u'right']","[0.8, 0.4, 0.2]","[u'low', u'high', u'medium']","black",50,"middle","high","False","False",262,4900,NA
"A2SR85I8JMO1ZZ","Sat Oct 03 2020 18:06:51 GMT-0500 (Central Daylight Time)","Sat Oct 03 2020 18:13:04 GMT-0500 (Central Daylight Time)","Mozilla/5.0 (Macintosh; Intel Mac OS X 10_14_4) AppleWebKit/537.36 (KHTML, like Gecko) Chrome/78.0.3904.108 Safari/537.36",122,"[0.9, 0.5, 0.1]","[0.8, 0.4, 0.2]","[u'red', u'black', u'blue']","[u'left', u'middle', u'right']","[0.8, 0.4, 0.2]","[u'low', u'high', u'medium']","red",49,"left","low","False","False",150,4850,NA
"A2SR85I8JMO1ZZ","Sat Oct 03 2020 18:06:51 GMT-0500 (Central Daylight Time)","Sat Oct 03 2020 18:13:04 GMT-0500 (Central Daylight Time)","Mozilla/5.0 (Macintosh; Intel Mac OS X 10_14_4) AppleWebKit/537.36 (KHTML, like Gecko) Chrome/78.0.3904.108 Safari/537.36",123,"[0.9, 0.5, 0.1]","[0.8, 0.4, 0.2]","[u'red', u'black', u'blue']","[u'left', u'middle', u'right']","[0.8, 0.4, 0.2]","[u'low', u'high', u'medium']","black",50,"middle","high","True","False",242,4950,NA
"A2SR85I8JMO1ZZ","Sat Oct 03 2020 18:06:51 GMT-0500 (Central Daylight Time)","Sat Oct 03 2020 18:13:04 GMT-0500 (Central Daylight Time)","Mozilla/5.0 (Macintosh; Intel Mac OS X 10_14_4) AppleWebKit/537.36 (KHTML, like Gecko) Chrome/78.0.3904.108 Safari/537.36",124,"[0.9, 0.5, 0.1]","[0.8, 0.4, 0.2]","[u'red', u'black', u'blue']","[u'left', u'middle', u'right']","[0.8, 0.4, 0.2]","[u'low', u'high', u'medium']","black",50,"middle","high","True","False",201,5050,NA
"A2SR85I8JMO1ZZ","Sat Oct 03 2020 18:06:51 GMT-0500 (Central Daylight Time)","Sat Oct 03 2020 18:13:04 GMT-0500 (Central Daylight Time)","Mozilla/5.0 (Macintosh; Intel Mac OS X 10_14_4) AppleWebKit/537.36 (KHTML, like Gecko) Chrome/78.0.3904.108 Safari/537.36",125,"[0.9, 0.5, 0.1]","[0.8, 0.4, 0.2]","[u'red', u'black', u'blue']","[u'left', u'middle', u'right']","[0.8, 0.4, 0.2]","[u'low', u'high', u'medium']","black",50,"middle","high","True","False",210,5150,NA
"A2SR85I8JMO1ZZ","Sat Oct 03 2020 18:06:51 GMT-0500 (Central Daylight Time)","Sat Oct 03 2020 18:13:04 GMT-0500 (Central Daylight Time)","Mozilla/5.0 (Macintosh; Intel Mac OS X 10_14_4) AppleWebKit/537.36 (KHTML, like Gecko) Chrome/78.0.3904.108 Safari/537.36",126,"[0.9, 0.5, 0.1]","[0.8, 0.4, 0.2]","[u'red', u'black', u'blue']","[u'left', u'middle', u'right']","[0.8, 0.4, 0.2]","[u'low', u'high', u'medium']","black",50,"middle","high","True","False",894,5250,NA
"A2SR85I8JMO1ZZ","Sat Oct 03 2020 18:06:51 GMT-0500 (Central Daylight Time)","Sat Oct 03 2020 18:13:04 GMT-0500 (Central Daylight Time)","Mozilla/5.0 (Macintosh; Intel Mac OS X 10_14_4) AppleWebKit/537.36 (KHTML, like Gecko) Chrome/78.0.3904.108 Safari/537.36",127,"[0.9, 0.5, 0.1]","[0.8, 0.4, 0.2]","[u'red', u'black', u'blue']","[u'left', u'middle', u'right']","[0.8, 0.4, 0.2]","[u'low', u'high', u'medium']","black",50,"middle","high","True","False",246,5350,NA
"A2SR85I8JMO1ZZ","Sat Oct 03 2020 18:06:51 GMT-0500 (Central Daylight Time)","Sat Oct 03 2020 18:13:04 GMT-0500 (Central Daylight Time)","Mozilla/5.0 (Macintosh; Intel Mac OS X 10_14_4) AppleWebKit/537.36 (KHTML, like Gecko) Chrome/78.0.3904.108 Safari/537.36",128,"[0.9, 0.5, 0.1]","[0.8, 0.4, 0.2]","[u'red', u'black', u'blue']","[u'left', u'middle', u'right']","[0.8, 0.4, 0.2]","[u'low', u'high', u'medium']","black",50,"middle","high","True","False",55,5450,NA
"A2SR85I8JMO1ZZ","Sat Oct 03 2020 18:06:51 GMT-0500 (Central Daylight Time)","Sat Oct 03 2020 18:13:04 GMT-0500 (Central Daylight Time)","Mozilla/5.0 (Macintosh; Intel Mac OS X 10_14_4) AppleWebKit/537.36 (KHTML, like Gecko) Chrome/78.0.3904.108 Safari/537.36",129,"[0.9, 0.5, 0.1]","[0.8, 0.4, 0.2]","[u'red', u'black', u'blue']","[u'left', u'middle', u'right']","[0.8, 0.4, 0.2]","[u'low', u'high', u'medium']","black",50,"middle","high","True","False",8,5550,NA
"A2SR85I8JMO1ZZ","Sat Oct 03 2020 18:06:51 GMT-0500 (Central Daylight Time)","Sat Oct 03 2020 18:13:04 GMT-0500 (Central Daylight Time)","Mozilla/5.0 (Macintosh; Intel Mac OS X 10_14_4) AppleWebKit/537.36 (KHTML, like Gecko) Chrome/78.0.3904.108 Safari/537.36",130,"[0.9, 0.5, 0.1]","[0.8, 0.4, 0.2]","[u'red', u'black', u'blue']","[u'left', u'middle', u'right']","[0.8, 0.4, 0.2]","[u'low', u'high', u'medium']","black",50,"middle","high","True","True",4,5650,NA
"A2SR85I8JMO1ZZ","Sat Oct 03 2020 18:06:51 GMT-0500 (Central Daylight Time)","Sat Oct 03 2020 18:13:04 GMT-0500 (Central Daylight Time)","Mozilla/5.0 (Macintosh; Intel Mac OS X 10_14_4) AppleWebKit/537.36 (KHTML, like Gecko) Chrome/78.0.3904.108 Safari/537.36",131,"[0.9, 0.5, 0.1]","[0.8, 0.4, 0.2]","[u'red', u'black', u'blue']","[u'left', u'middle', u'right']","[0.8, 0.4, 0.2]","[u'low', u'medium', u'high']","black",50,"middle","medium","True","False",390,5750,NA
"A2SR85I8JMO1ZZ","Sat Oct 03 2020 18:06:51 GMT-0500 (Central Daylight Time)","Sat Oct 03 2020 18:13:04 GMT-0500 (Central Daylight Time)","Mozilla/5.0 (Macintosh; Intel Mac OS X 10_14_4) AppleWebKit/537.36 (KHTML, like Gecko) Chrome/78.0.3904.108 Safari/537.36",132,"[0.9, 0.5, 0.1]","[0.8, 0.4, 0.2]","[u'red', u'black', u'blue']","[u'left', u'middle', u'right']","[0.8, 0.4, 0.2]","[u'low', u'medium', u'high']","black",50,"middle","medium","False","False",105,5700,NA
"A2SR85I8JMO1ZZ","Sat Oct 03 2020 18:06:51 GMT-0500 (Central Daylight Time)","Sat Oct 03 2020 18:13:04 GMT-0500 (Central Daylight Time)","Mozilla/5.0 (Macintosh; Intel Mac OS X 10_14_4) AppleWebKit/537.36 (KHTML, like Gecko) Chrome/78.0.3904.108 Safari/537.36",133,"[0.9, 0.5, 0.1]","[0.8, 0.4, 0.2]","[u'red', u'black', u'blue']","[u'left', u'middle', u'right']","[0.8, 0.4, 0.2]","[u'low', u'medium', u'high']","black",50,"middle","medium","True","False",734,5800,NA
"A2SR85I8JMO1ZZ","Sat Oct 03 2020 18:06:51 GMT-0500 (Central Daylight Time)","Sat Oct 03 2020 18:13:04 GMT-0500 (Central Daylight Time)","Mozilla/5.0 (Macintosh; Intel Mac OS X 10_14_4) AppleWebKit/537.36 (KHTML, like Gecko) Chrome/78.0.3904.108 Safari/537.36",134,"[0.9, 0.5, 0.1]","[0.8, 0.4, 0.2]","[u'red', u'black', u'blue']","[u'left', u'middle', u'right']","[0.8, 0.4, 0.2]","[u'low', u'medium', u'high']","black",50,"middle","medium","False","False",205,5750,NA
"A2SR85I8JMO1ZZ","Sat Oct 03 2020 18:06:51 GMT-0500 (Central Daylight Time)","Sat Oct 03 2020 18:13:04 GMT-0500 (Central Daylight Time)","Mozilla/5.0 (Macintosh; Intel Mac OS X 10_14_4) AppleWebKit/537.36 (KHTML, like Gecko) Chrome/78.0.3904.108 Safari/537.36",135,"[0.9, 0.5, 0.1]","[0.8, 0.4, 0.2]","[u'red', u'black', u'blue']","[u'left', u'middle', u'right']","[0.8, 0.4, 0.2]","[u'low', u'medium', u'high']","black",50,"middle","medium","False","False",698,5700,NA
"A2SR85I8JMO1ZZ","Sat Oct 03 2020 18:06:51 GMT-0500 (Central Daylight Time)","Sat Oct 03 2020 18:13:04 GMT-0500 (Central Daylight Time)","Mozilla/5.0 (Macintosh; Intel Mac OS X 10_14_4) AppleWebKit/537.36 (KHTML, like Gecko) Chrome/78.0.3904.108 Safari/537.36",136,"[0.9, 0.5, 0.1]","[0.8, 0.4, 0.2]","[u'red', u'black', u'blue']","[u'left', u'middle', u'right']","[0.8, 0.4, 0.2]","[u'low', u'medium', u'high']","red",49,"left","low","False","False",212,5650,NA
"A2SR85I8JMO1ZZ","Sat Oct 03 2020 18:06:51 GMT-0500 (Central Daylight Time)","Sat Oct 03 2020 18:13:04 GMT-0500 (Central Daylight Time)","Mozilla/5.0 (Macintosh; Intel Mac OS X 10_14_4) AppleWebKit/537.36 (KHTML, like Gecko) Chrome/78.0.3904.108 Safari/537.36",137,"[0.9, 0.5, 0.1]","[0.8, 0.4, 0.2]","[u'red', u'black', u'blue']","[u'left', u'middle', u'right']","[0.8, 0.4, 0.2]","[u'low', u'medium', u'high']","red",49,"left","low","False","False",182,5600,NA
"A2SR85I8JMO1ZZ","Sat Oct 03 2020 18:06:51 GMT-0500 (Central Daylight Time)","Sat Oct 03 2020 18:13:04 GMT-0500 (Central Daylight Time)","Mozilla/5.0 (Macintosh; Intel Mac OS X 10_14_4) AppleWebKit/537.36 (KHTML, like Gecko) Chrome/78.0.3904.108 Safari/537.36",138,"[0.9, 0.5, 0.1]","[0.8, 0.4, 0.2]","[u'red', u'black', u'blue']","[u'left', u'middle', u'right']","[0.8, 0.4, 0.2]","[u'low', u'medium', u'high']","blue",51,"right","high","True","False",307,5700,NA
"A2SR85I8JMO1ZZ","Sat Oct 03 2020 18:06:51 GMT-0500 (Central Daylight Time)","Sat Oct 03 2020 18:13:04 GMT-0500 (Central Daylight Time)","Mozilla/5.0 (Macintosh; Intel Mac OS X 10_14_4) AppleWebKit/537.36 (KHTML, like Gecko) Chrome/78.0.3904.108 Safari/537.36",139,"[0.9, 0.5, 0.1]","[0.8, 0.4, 0.2]","[u'red', u'black', u'blue']","[u'left', u'middle', u'right']","[0.8, 0.4, 0.2]","[u'low', u'medium', u'high']","blue",51,"right","high","False","False",99,5650,NA
"A2SR85I8JMO1ZZ","Sat Oct 03 2020 18:06:51 GMT-0500 (Central Daylight Time)","Sat Oct 03 2020 18:13:04 GMT-0500 (Central Daylight Time)","Mozilla/5.0 (Macintosh; Intel Mac OS X 10_14_4) AppleWebKit/537.36 (KHTML, like Gecko) Chrome/78.0.3904.108 Safari/537.36",140,"[0.9, 0.5, 0.1]","[0.8, 0.4, 0.2]","[u'red', u'black', u'blue']","[u'left', u'middle', u'right']","[0.8, 0.4, 0.2]","[u'low', u'medium', u'high']","blue",51,"right","high","True","False",361,5750,NA
"A2SR85I8JMO1ZZ","Sat Oct 03 2020 18:06:51 GMT-0500 (Central Daylight Time)","Sat Oct 03 2020 18:13:04 GMT-0500 (Central Daylight Time)","Mozilla/5.0 (Macintosh; Intel Mac OS X 10_14_4) AppleWebKit/537.36 (KHTML, like Gecko) Chrome/78.0.3904.108 Safari/537.36",141,"[0.9, 0.5, 0.1]","[0.8, 0.4, 0.2]","[u'red', u'black', u'blue']","[u'left', u'middle', u'right']","[0.8, 0.4, 0.2]","[u'low', u'medium', u'high']","blue",51,"right","high","True","False",231,5850,NA
"A2SR85I8JMO1ZZ","Sat Oct 03 2020 18:06:51 GMT-0500 (Central Daylight Time)","Sat Oct 03 2020 18:13:04 GMT-0500 (Central Daylight Time)","Mozilla/5.0 (Macintosh; Intel Mac OS X 10_14_4) AppleWebKit/537.36 (KHTML, like Gecko) Chrome/78.0.3904.108 Safari/537.36",142,"[0.9, 0.5, 0.1]","[0.8, 0.4, 0.2]","[u'red', u'black', u'blue']","[u'left', u'middle', u'right']","[0.8, 0.4, 0.2]","[u'low', u'medium', u'high']","blue",51,"right","high","True","False",118,5950,NA
"A2SR85I8JMO1ZZ","Sat Oct 03 2020 18:06:51 GMT-0500 (Central Daylight Time)","Sat Oct 03 2020 18:13:04 GMT-0500 (Central Daylight Time)","Mozilla/5.0 (Macintosh; Intel Mac OS X 10_14_4) AppleWebKit/537.36 (KHTML, like Gecko) Chrome/78.0.3904.108 Safari/537.36",143,"[0.9, 0.5, 0.1]","[0.8, 0.4, 0.2]","[u'red', u'black', u'blue']","[u'left', u'middle', u'right']","[0.8, 0.4, 0.2]","[u'low', u'medium', u'high']","blue",51,"right","high","True","False",125,6050,NA
"A2SR85I8JMO1ZZ","Sat Oct 03 2020 18:06:51 GMT-0500 (Central Daylight Time)","Sat Oct 03 2020 18:13:04 GMT-0500 (Central Daylight Time)","Mozilla/5.0 (Macintosh; Intel Mac OS X 10_14_4) AppleWebKit/537.36 (KHTML, like Gecko) Chrome/78.0.3904.108 Safari/537.36",144,"[0.9, 0.5, 0.1]","[0.8, 0.4, 0.2]","[u'red', u'black', u'blue']","[u'left', u'middle', u'right']","[0.8, 0.4, 0.2]","[u'low', u'medium', u'high']","blue",51,"right","high","True","False",198,6150,NA
"A2SR85I8JMO1ZZ","Sat Oct 03 2020 18:06:51 GMT-0500 (Central Daylight Time)","Sat Oct 03 2020 18:13:04 GMT-0500 (Central Daylight Time)","Mozilla/5.0 (Macintosh; Intel Mac OS X 10_14_4) AppleWebKit/537.36 (KHTML, like Gecko) Chrome/78.0.3904.108 Safari/537.36",145,"[0.9, 0.5, 0.1]","[0.8, 0.4, 0.2]","[u'red', u'black', u'blue']","[u'left', u'middle', u'right']","[0.8, 0.4, 0.2]","[u'low', u'medium', u'high']","blue",51,"right","high","True","False",277,6250,NA
"A2SR85I8JMO1ZZ","Sat Oct 03 2020 18:06:51 GMT-0500 (Central Daylight Time)","Sat Oct 03 2020 18:13:04 GMT-0500 (Central Daylight Time)","Mozilla/5.0 (Macintosh; Intel Mac OS X 10_14_4) AppleWebKit/537.36 (KHTML, like Gecko) Chrome/78.0.3904.108 Safari/537.36",146,"[0.9, 0.5, 0.1]","[0.8, 0.4, 0.2]","[u'red', u'black', u'blue']","[u'left', u'middle', u'right']","[0.8, 0.4, 0.2]","[u'low', u'medium', u'high']","blue",51,"right","high","True","True",298,6350,NA
"A2SR85I8JMO1ZZ","Sat Oct 03 2020 18:06:51 GMT-0500 (Central Daylight Time)","Sat Oct 03 2020 18:13:04 GMT-0500 (Central Daylight Time)","Mozilla/5.0 (Macintosh; Intel Mac OS X 10_14_4) AppleWebKit/537.36 (KHTML, like Gecko) Chrome/78.0.3904.108 Safari/537.36",147,"[0.9, 0.5, 0.1]","[0.8, 0.4, 0.2]","[u'red', u'black', u'blue']","[u'left', u'middle', u'right']","[0.8, 0.4, 0.2]","[u'high', u'medium', u'low']","blue",51,"right","low","False","False",92,6300,NA
"A2SR85I8JMO1ZZ","Sat Oct 03 2020 18:06:51 GMT-0500 (Central Daylight Time)","Sat Oct 03 2020 18:13:04 GMT-0500 (Central Daylight Time)","Mozilla/5.0 (Macintosh; Intel Mac OS X 10_14_4) AppleWebKit/537.36 (KHTML, like Gecko) Chrome/78.0.3904.108 Safari/537.36",148,"[0.9, 0.5, 0.1]","[0.8, 0.4, 0.2]","[u'red', u'black', u'blue']","[u'left', u'middle', u'right']","[0.8, 0.4, 0.2]","[u'high', u'medium', u'low']","black",50,"middle","medium","False","False",67,6250,NA
"A2SR85I8JMO1ZZ","Sat Oct 03 2020 18:06:51 GMT-0500 (Central Daylight Time)","Sat Oct 03 2020 18:13:04 GMT-0500 (Central Daylight Time)","Mozilla/5.0 (Macintosh; Intel Mac OS X 10_14_4) AppleWebKit/537.36 (KHTML, like Gecko) Chrome/78.0.3904.108 Safari/537.36",149,"[0.9, 0.5, 0.1]","[0.8, 0.4, 0.2]","[u'red', u'black', u'blue']","[u'left', u'middle', u'right']","[0.8, 0.4, 0.2]","[u'high', u'medium', u'low']","blue",51,"right","low","True","False",157,6350,NA
"A2SR85I8JMO1ZZ","Sat Oct 03 2020 18:06:51 GMT-0500 (Central Daylight Time)","Sat Oct 03 2020 18:13:04 GMT-0500 (Central Daylight Time)","Mozilla/5.0 (Macintosh; Intel Mac OS X 10_14_4) AppleWebKit/537.36 (KHTML, like Gecko) Chrome/78.0.3904.108 Safari/537.36",150,"[0.9, 0.5, 0.1]","[0.8, 0.4, 0.2]","[u'red', u'black', u'blue']","[u'left', u'middle', u'right']","[0.8, 0.4, 0.2]","[u'high', u'medium', u'low']","blue",51,"right","low","False","False",206,6300,NA
"A2SR85I8JMO1ZZ","Sat Oct 03 2020 18:06:51 GMT-0500 (Central Daylight Time)","Sat Oct 03 2020 18:13:04 GMT-0500 (Central Daylight Time)","Mozilla/5.0 (Macintosh; Intel Mac OS X 10_14_4) AppleWebKit/537.36 (KHTML, like Gecko) Chrome/78.0.3904.108 Safari/537.36",151,"[0.9, 0.5, 0.1]","[0.8, 0.4, 0.2]","[u'red', u'black', u'blue']","[u'left', u'middle', u'right']","[0.8, 0.4, 0.2]","[u'high', u'medium', u'low']","black",50,"middle","medium","True","False",6,6400,NA
"A2SR85I8JMO1ZZ","Sat Oct 03 2020 18:06:51 GMT-0500 (Central Daylight Time)","Sat Oct 03 2020 18:13:04 GMT-0500 (Central Daylight Time)","Mozilla/5.0 (Macintosh; Intel Mac OS X 10_14_4) AppleWebKit/537.36 (KHTML, like Gecko) Chrome/78.0.3904.108 Safari/537.36",152,"[0.9, 0.5, 0.1]","[0.8, 0.4, 0.2]","[u'red', u'black', u'blue']","[u'left', u'middle', u'right']","[0.8, 0.4, 0.2]","[u'high', u'medium', u'low']","black",50,"middle","medium","True","False",381,6500,NA
"A2SR85I8JMO1ZZ","Sat Oct 03 2020 18:06:51 GMT-0500 (Central Daylight Time)","Sat Oct 03 2020 18:13:04 GMT-0500 (Central Daylight Time)","Mozilla/5.0 (Macintosh; Intel Mac OS X 10_14_4) AppleWebKit/537.36 (KHTML, like Gecko) Chrome/78.0.3904.108 Safari/537.36",153,"[0.9, 0.5, 0.1]","[0.8, 0.4, 0.2]","[u'red', u'black', u'blue']","[u'left', u'middle', u'right']","[0.8, 0.4, 0.2]","[u'high', u'medium', u'low']","black",50,"middle","medium","True","False",147,6600,NA
"A2SR85I8JMO1ZZ","Sat Oct 03 2020 18:06:51 GMT-0500 (Central Daylight Time)","Sat Oct 03 2020 18:13:04 GMT-0500 (Central Daylight Time)","Mozilla/5.0 (Macintosh; Intel Mac OS X 10_14_4) AppleWebKit/537.36 (KHTML, like Gecko) Chrome/78.0.3904.108 Safari/537.36",154,"[0.9, 0.5, 0.1]","[0.8, 0.4, 0.2]","[u'red', u'black', u'blue']","[u'left', u'middle', u'right']","[0.8, 0.4, 0.2]","[u'high', u'medium', u'low']","black",50,"middle","medium","False","False",150,6550,NA
"A2SR85I8JMO1ZZ","Sat Oct 03 2020 18:06:51 GMT-0500 (Central Daylight Time)","Sat Oct 03 2020 18:13:04 GMT-0500 (Central Daylight Time)","Mozilla/5.0 (Macintosh; Intel Mac OS X 10_14_4) AppleWebKit/537.36 (KHTML, like Gecko) Chrome/78.0.3904.108 Safari/537.36",155,"[0.9, 0.5, 0.1]","[0.8, 0.4, 0.2]","[u'red', u'black', u'blue']","[u'left', u'middle', u'right']","[0.8, 0.4, 0.2]","[u'high', u'medium', u'low']","black",50,"middle","medium","False","False",419,6500,NA
"A2SR85I8JMO1ZZ","Sat Oct 03 2020 18:06:51 GMT-0500 (Central Daylight Time)","Sat Oct 03 2020 18:13:04 GMT-0500 (Central Daylight Time)","Mozilla/5.0 (Macintosh; Intel Mac OS X 10_14_4) AppleWebKit/537.36 (KHTML, like Gecko) Chrome/78.0.3904.108 Safari/537.36",156,"[0.9, 0.5, 0.1]","[0.8, 0.4, 0.2]","[u'red', u'black', u'blue']","[u'left', u'middle', u'right']","[0.8, 0.4, 0.2]","[u'high', u'medium', u'low']","blue",51,"right","low","False","False",270,6450,NA
"A2SR85I8JMO1ZZ","Sat Oct 03 2020 18:06:51 GMT-0500 (Central Daylight Time)","Sat Oct 03 2020 18:13:04 GMT-0500 (Central Daylight Time)","Mozilla/5.0 (Macintosh; Intel Mac OS X 10_14_4) AppleWebKit/537.36 (KHTML, like Gecko) Chrome/78.0.3904.108 Safari/537.36",157,"[0.9, 0.5, 0.1]","[0.8, 0.4, 0.2]","[u'red', u'black', u'blue']","[u'left', u'middle', u'right']","[0.8, 0.4, 0.2]","[u'high', u'medium', u'low']","red",49,"left","high","True","False",236,6550,NA
"A2SR85I8JMO1ZZ","Sat Oct 03 2020 18:06:51 GMT-0500 (Central Daylight Time)","Sat Oct 03 2020 18:13:04 GMT-0500 (Central Daylight Time)","Mozilla/5.0 (Macintosh; Intel Mac OS X 10_14_4) AppleWebKit/537.36 (KHTML, like Gecko) Chrome/78.0.3904.108 Safari/537.36",158,"[0.9, 0.5, 0.1]","[0.8, 0.4, 0.2]","[u'red', u'black', u'blue']","[u'left', u'middle', u'right']","[0.8, 0.4, 0.2]","[u'high', u'medium', u'low']","red",49,"left","high","True","False",110,6650,NA
"A2SR85I8JMO1ZZ","Sat Oct 03 2020 18:06:51 GMT-0500 (Central Daylight Time)","Sat Oct 03 2020 18:13:04 GMT-0500 (Central Daylight Time)","Mozilla/5.0 (Macintosh; Intel Mac OS X 10_14_4) AppleWebKit/537.36 (KHTML, like Gecko) Chrome/78.0.3904.108 Safari/537.36",159,"[0.9, 0.5, 0.1]","[0.8, 0.4, 0.2]","[u'red', u'black', u'blue']","[u'left', u'middle', u'right']","[0.8, 0.4, 0.2]","[u'high', u'medium', u'low']","red",49,"left","high","False","False",40,6600,NA
"A2SR85I8JMO1ZZ","Sat Oct 03 2020 18:06:51 GMT-0500 (Central Daylight Time)","Sat Oct 03 2020 18:13:04 GMT-0500 (Central Daylight Time)","Mozilla/5.0 (Macintosh; Intel Mac OS X 10_14_4) AppleWebKit/537.36 (KHTML, like Gecko) Chrome/78.0.3904.108 Safari/537.36",160,"[0.9, 0.5, 0.1]","[0.8, 0.4, 0.2]","[u'red', u'black', u'blue']","[u'left', u'middle', u'right']","[0.8, 0.4, 0.2]","[u'high', u'medium', u'low']","red",49,"left","high","True","False",228,6700,NA
