"src_subject_id","start_time","end_time","browser","index","first_half_probabilities","second_half_probabilities","deck_color","deck_position","deck_probabilities","deck_contingencies","response_color","key_press","response_position","response_probability","reward_type","trial_type","rt","reward_tally","exclusion_reason"
"A5KY3NHA1TEU1","Sat Oct 03 2020 15:29:30 GMT-0400 (Eastern Daylight Time)","Sat Oct 03 2020 15:48:33 GMT-0400 (Eastern Daylight Time)","Mozilla/5.0 (Windows NT 6.3; Win64; x64) AppleWebKit/537.36 (KHTML, like Gecko) Chrome/85.0.4183.121 Safari/537.36",1,"[0.9, 0.5, 0.1]","[0.8, 0.4, 0.2]","[u'blue', u'black', u'red']","[u'left', u'middle', u'right']","[0.9, 0.5, 0.1]","[u'low', u'high', u'medium']","black",50,"middle","high","True","False",959,100,NA
"A5KY3NHA1TEU1","Sat Oct 03 2020 15:29:30 GMT-0400 (Eastern Daylight Time)","Sat Oct 03 2020 15:48:33 GMT-0400 (Eastern Daylight Time)","Mozilla/5.0 (Windows NT 6.3; Win64; x64) AppleWebKit/537.36 (KHTML, like Gecko) Chrome/85.0.4183.121 Safari/537.36",2,"[0.9, 0.5, 0.1]","[0.8, 0.4, 0.2]","[u'blue', u'black', u'red']","[u'left', u'middle', u'right']","[0.9, 0.5, 0.1]","[u'low', u'high', u'medium']","red",51,"right","medium","True","False",366,200,NA
"A5KY3NHA1TEU1","Sat Oct 03 2020 15:29:30 GMT-0400 (Eastern Daylight Time)","Sat Oct 03 2020 15:48:33 GMT-0400 (Eastern Daylight Time)","Mozilla/5.0 (Windows NT 6.3; Win64; x64) AppleWebKit/537.36 (KHTML, like Gecko) Chrome/85.0.4183.121 Safari/537.36",3,"[0.9, 0.5, 0.1]","[0.8, 0.4, 0.2]","[u'blue', u'black', u'red']","[u'left', u'middle', u'right']","[0.9, 0.5, 0.1]","[u'low', u'high', u'medium']","blue",49,"left","low","True","False",162,300,NA
"A5KY3NHA1TEU1","Sat Oct 03 2020 15:29:30 GMT-0400 (Eastern Daylight Time)","Sat Oct 03 2020 15:48:33 GMT-0400 (Eastern Daylight Time)","Mozilla/5.0 (Windows NT 6.3; Win64; x64) AppleWebKit/537.36 (KHTML, like Gecko) Chrome/85.0.4183.121 Safari/537.36",4,"[0.9, 0.5, 0.1]","[0.8, 0.4, 0.2]","[u'blue', u'black', u'red']","[u'left', u'middle', u'right']","[0.9, 0.5, 0.1]","[u'low', u'high', u'medium']","red",51,"right","medium","True","False",247,400,NA
"A5KY3NHA1TEU1","Sat Oct 03 2020 15:29:30 GMT-0400 (Eastern Daylight Time)","Sat Oct 03 2020 15:48:33 GMT-0400 (Eastern Daylight Time)","Mozilla/5.0 (Windows NT 6.3; Win64; x64) AppleWebKit/537.36 (KHTML, like Gecko) Chrome/85.0.4183.121 Safari/537.36",5,"[0.9, 0.5, 0.1]","[0.8, 0.4, 0.2]","[u'blue', u'black', u'red']","[u'left', u'middle', u'right']","[0.9, 0.5, 0.1]","[u'low', u'high', u'medium']","black",50,"middle","high","False","False",258,350,NA
"A5KY3NHA1TEU1","Sat Oct 03 2020 15:29:30 GMT-0400 (Eastern Daylight Time)","Sat Oct 03 2020 15:48:33 GMT-0400 (Eastern Daylight Time)","Mozilla/5.0 (Windows NT 6.3; Win64; x64) AppleWebKit/537.36 (KHTML, like Gecko) Chrome/85.0.4183.121 Safari/537.36",6,"[0.9, 0.5, 0.1]","[0.8, 0.4, 0.2]","[u'blue', u'black', u'red']","[u'left', u'middle', u'right']","[0.9, 0.5, 0.1]","[u'low', u'high', u'medium']","blue",49,"left","low","False","False",163,300,NA
"A5KY3NHA1TEU1","Sat Oct 03 2020 15:29:30 GMT-0400 (Eastern Daylight Time)","Sat Oct 03 2020 15:48:33 GMT-0400 (Eastern Daylight Time)","Mozilla/5.0 (Windows NT 6.3; Win64; x64) AppleWebKit/537.36 (KHTML, like Gecko) Chrome/85.0.4183.121 Safari/537.36",7,"[0.9, 0.5, 0.1]","[0.8, 0.4, 0.2]","[u'blue', u'black', u'red']","[u'left', u'middle', u'right']","[0.9, 0.5, 0.1]","[u'low', u'high', u'medium']","blue",49,"left","low","False","False",286,250,NA
"A5KY3NHA1TEU1","Sat Oct 03 2020 15:29:30 GMT-0400 (Eastern Daylight Time)","Sat Oct 03 2020 15:48:33 GMT-0400 (Eastern Daylight Time)","Mozilla/5.0 (Windows NT 6.3; Win64; x64) AppleWebKit/537.36 (KHTML, like Gecko) Chrome/85.0.4183.121 Safari/537.36",8,"[0.9, 0.5, 0.1]","[0.8, 0.4, 0.2]","[u'blue', u'black', u'red']","[u'left', u'middle', u'right']","[0.9, 0.5, 0.1]","[u'low', u'high', u'medium']","red",51,"right","medium","False","False",66,200,NA
"A5KY3NHA1TEU1","Sat Oct 03 2020 15:29:30 GMT-0400 (Eastern Daylight Time)","Sat Oct 03 2020 15:48:33 GMT-0400 (Eastern Daylight Time)","Mozilla/5.0 (Windows NT 6.3; Win64; x64) AppleWebKit/537.36 (KHTML, like Gecko) Chrome/85.0.4183.121 Safari/537.36",9,"[0.9, 0.5, 0.1]","[0.8, 0.4, 0.2]","[u'blue', u'black', u'red']","[u'left', u'middle', u'right']","[0.9, 0.5, 0.1]","[u'low', u'high', u'medium']","black",50,"middle","high","True","False",102,300,NA
"A5KY3NHA1TEU1","Sat Oct 03 2020 15:29:30 GMT-0400 (Eastern Daylight Time)","Sat Oct 03 2020 15:48:33 GMT-0400 (Eastern Daylight Time)","Mozilla/5.0 (Windows NT 6.3; Win64; x64) AppleWebKit/537.36 (KHTML, like Gecko) Chrome/85.0.4183.121 Safari/537.36",10,"[0.9, 0.5, 0.1]","[0.8, 0.4, 0.2]","[u'blue', u'black', u'red']","[u'left', u'middle', u'right']","[0.9, 0.5, 0.1]","[u'low', u'high', u'medium']","black",50,"middle","high","True","False",240,400,NA
"A5KY3NHA1TEU1","Sat Oct 03 2020 15:29:30 GMT-0400 (Eastern Daylight Time)","Sat Oct 03 2020 15:48:33 GMT-0400 (Eastern Daylight Time)","Mozilla/5.0 (Windows NT 6.3; Win64; x64) AppleWebKit/537.36 (KHTML, like Gecko) Chrome/85.0.4183.121 Safari/537.36",11,"[0.9, 0.5, 0.1]","[0.8, 0.4, 0.2]","[u'blue', u'black', u'red']","[u'left', u'middle', u'right']","[0.9, 0.5, 0.1]","[u'low', u'high', u'medium']","blue",49,"left","low","False","False",151,350,NA
"A5KY3NHA1TEU1","Sat Oct 03 2020 15:29:30 GMT-0400 (Eastern Daylight Time)","Sat Oct 03 2020 15:48:33 GMT-0400 (Eastern Daylight Time)","Mozilla/5.0 (Windows NT 6.3; Win64; x64) AppleWebKit/537.36 (KHTML, like Gecko) Chrome/85.0.4183.121 Safari/537.36",12,"[0.9, 0.5, 0.1]","[0.8, 0.4, 0.2]","[u'blue', u'black', u'red']","[u'left', u'middle', u'right']","[0.9, 0.5, 0.1]","[u'low', u'high', u'medium']","black",50,"middle","high","True","False",138,450,NA
"A5KY3NHA1TEU1","Sat Oct 03 2020 15:29:30 GMT-0400 (Eastern Daylight Time)","Sat Oct 03 2020 15:48:33 GMT-0400 (Eastern Daylight Time)","Mozilla/5.0 (Windows NT 6.3; Win64; x64) AppleWebKit/537.36 (KHTML, like Gecko) Chrome/85.0.4183.121 Safari/537.36",13,"[0.9, 0.5, 0.1]","[0.8, 0.4, 0.2]","[u'blue', u'black', u'red']","[u'left', u'middle', u'right']","[0.9, 0.5, 0.1]","[u'low', u'high', u'medium']","black",50,"middle","high","True","False",159,550,NA
"A5KY3NHA1TEU1","Sat Oct 03 2020 15:29:30 GMT-0400 (Eastern Daylight Time)","Sat Oct 03 2020 15:48:33 GMT-0400 (Eastern Daylight Time)","Mozilla/5.0 (Windows NT 6.3; Win64; x64) AppleWebKit/537.36 (KHTML, like Gecko) Chrome/85.0.4183.121 Safari/537.36",14,"[0.9, 0.5, 0.1]","[0.8, 0.4, 0.2]","[u'blue', u'black', u'red']","[u'left', u'middle', u'right']","[0.9, 0.5, 0.1]","[u'low', u'high', u'medium']","red",51,"right","medium","True","False",90,650,NA
"A5KY3NHA1TEU1","Sat Oct 03 2020 15:29:30 GMT-0400 (Eastern Daylight Time)","Sat Oct 03 2020 15:48:33 GMT-0400 (Eastern Daylight Time)","Mozilla/5.0 (Windows NT 6.3; Win64; x64) AppleWebKit/537.36 (KHTML, like Gecko) Chrome/85.0.4183.121 Safari/537.36",15,"[0.9, 0.5, 0.1]","[0.8, 0.4, 0.2]","[u'blue', u'black', u'red']","[u'left', u'middle', u'right']","[0.9, 0.5, 0.1]","[u'low', u'high', u'medium']","red",51,"right","medium","True","False",170,750,NA
"A5KY3NHA1TEU1","Sat Oct 03 2020 15:29:30 GMT-0400 (Eastern Daylight Time)","Sat Oct 03 2020 15:48:33 GMT-0400 (Eastern Daylight Time)","Mozilla/5.0 (Windows NT 6.3; Win64; x64) AppleWebKit/537.36 (KHTML, like Gecko) Chrome/85.0.4183.121 Safari/537.36",16,"[0.9, 0.5, 0.1]","[0.8, 0.4, 0.2]","[u'blue', u'black', u'red']","[u'left', u'middle', u'right']","[0.9, 0.5, 0.1]","[u'low', u'high', u'medium']","black",50,"middle","high","True","False",125,850,NA
"A5KY3NHA1TEU1","Sat Oct 03 2020 15:29:30 GMT-0400 (Eastern Daylight Time)","Sat Oct 03 2020 15:48:33 GMT-0400 (Eastern Daylight Time)","Mozilla/5.0 (Windows NT 6.3; Win64; x64) AppleWebKit/537.36 (KHTML, like Gecko) Chrome/85.0.4183.121 Safari/537.36",17,"[0.9, 0.5, 0.1]","[0.8, 0.4, 0.2]","[u'blue', u'black', u'red']","[u'left', u'middle', u'right']","[0.9, 0.5, 0.1]","[u'low', u'high', u'medium']","blue",49,"left","low","False","False",184,800,NA
"A5KY3NHA1TEU1","Sat Oct 03 2020 15:29:30 GMT-0400 (Eastern Daylight Time)","Sat Oct 03 2020 15:48:33 GMT-0400 (Eastern Daylight Time)","Mozilla/5.0 (Windows NT 6.3; Win64; x64) AppleWebKit/537.36 (KHTML, like Gecko) Chrome/85.0.4183.121 Safari/537.36",18,"[0.9, 0.5, 0.1]","[0.8, 0.4, 0.2]","[u'blue', u'black', u'red']","[u'left', u'middle', u'right']","[0.9, 0.5, 0.1]","[u'low', u'high', u'medium']","red",51,"right","medium","True","False",350,900,NA
"A5KY3NHA1TEU1","Sat Oct 03 2020 15:29:30 GMT-0400 (Eastern Daylight Time)","Sat Oct 03 2020 15:48:33 GMT-0400 (Eastern Daylight Time)","Mozilla/5.0 (Windows NT 6.3; Win64; x64) AppleWebKit/537.36 (KHTML, like Gecko) Chrome/85.0.4183.121 Safari/537.36",19,"[0.9, 0.5, 0.1]","[0.8, 0.4, 0.2]","[u'blue', u'black', u'red']","[u'left', u'middle', u'right']","[0.9, 0.5, 0.1]","[u'low', u'high', u'medium']","black",50,"middle","high","True","False",416,1000,NA
"A5KY3NHA1TEU1","Sat Oct 03 2020 15:29:30 GMT-0400 (Eastern Daylight Time)","Sat Oct 03 2020 15:48:33 GMT-0400 (Eastern Daylight Time)","Mozilla/5.0 (Windows NT 6.3; Win64; x64) AppleWebKit/537.36 (KHTML, like Gecko) Chrome/85.0.4183.121 Safari/537.36",20,"[0.9, 0.5, 0.1]","[0.8, 0.4, 0.2]","[u'blue', u'black', u'red']","[u'left', u'middle', u'right']","[0.9, 0.5, 0.1]","[u'low', u'high', u'medium']","red",51,"right","medium","False","False",697,950,NA
"A5KY3NHA1TEU1","Sat Oct 03 2020 15:29:30 GMT-0400 (Eastern Daylight Time)","Sat Oct 03 2020 15:48:33 GMT-0400 (Eastern Daylight Time)","Mozilla/5.0 (Windows NT 6.3; Win64; x64) AppleWebKit/537.36 (KHTML, like Gecko) Chrome/85.0.4183.121 Safari/537.36",21,"[0.9, 0.5, 0.1]","[0.8, 0.4, 0.2]","[u'blue', u'black', u'red']","[u'left', u'middle', u'right']","[0.9, 0.5, 0.1]","[u'low', u'high', u'medium']","black",50,"middle","high","True","False",448,1050,NA
"A5KY3NHA1TEU1","Sat Oct 03 2020 15:29:30 GMT-0400 (Eastern Daylight Time)","Sat Oct 03 2020 15:48:33 GMT-0400 (Eastern Daylight Time)","Mozilla/5.0 (Windows NT 6.3; Win64; x64) AppleWebKit/537.36 (KHTML, like Gecko) Chrome/85.0.4183.121 Safari/537.36",22,"[0.9, 0.5, 0.1]","[0.8, 0.4, 0.2]","[u'blue', u'black', u'red']","[u'left', u'middle', u'right']","[0.9, 0.5, 0.1]","[u'low', u'high', u'medium']","blue",49,"left","low","False","False",318,1000,NA
"A5KY3NHA1TEU1","Sat Oct 03 2020 15:29:30 GMT-0400 (Eastern Daylight Time)","Sat Oct 03 2020 15:48:33 GMT-0400 (Eastern Daylight Time)","Mozilla/5.0 (Windows NT 6.3; Win64; x64) AppleWebKit/537.36 (KHTML, like Gecko) Chrome/85.0.4183.121 Safari/537.36",23,"[0.9, 0.5, 0.1]","[0.8, 0.4, 0.2]","[u'blue', u'black', u'red']","[u'left', u'middle', u'right']","[0.9, 0.5, 0.1]","[u'low', u'high', u'medium']","black",50,"middle","high","True","False",169,1100,NA
"A5KY3NHA1TEU1","Sat Oct 03 2020 15:29:30 GMT-0400 (Eastern Daylight Time)","Sat Oct 03 2020 15:48:33 GMT-0400 (Eastern Daylight Time)","Mozilla/5.0 (Windows NT 6.3; Win64; x64) AppleWebKit/537.36 (KHTML, like Gecko) Chrome/85.0.4183.121 Safari/537.36",24,"[0.9, 0.5, 0.1]","[0.8, 0.4, 0.2]","[u'blue', u'black', u'red']","[u'left', u'middle', u'right']","[0.9, 0.5, 0.1]","[u'low', u'high', u'medium']","red",51,"right","medium","False","False",150,1050,NA
"A5KY3NHA1TEU1","Sat Oct 03 2020 15:29:30 GMT-0400 (Eastern Daylight Time)","Sat Oct 03 2020 15:48:33 GMT-0400 (Eastern Daylight Time)","Mozilla/5.0 (Windows NT 6.3; Win64; x64) AppleWebKit/537.36 (KHTML, like Gecko) Chrome/85.0.4183.121 Safari/537.36",25,"[0.9, 0.5, 0.1]","[0.8, 0.4, 0.2]","[u'blue', u'black', u'red']","[u'left', u'middle', u'right']","[0.9, 0.5, 0.1]","[u'low', u'high', u'medium']","black",50,"middle","high","True","False",810,1150,NA
"A5KY3NHA1TEU1","Sat Oct 03 2020 15:29:30 GMT-0400 (Eastern Daylight Time)","Sat Oct 03 2020 15:48:33 GMT-0400 (Eastern Daylight Time)","Mozilla/5.0 (Windows NT 6.3; Win64; x64) AppleWebKit/537.36 (KHTML, like Gecko) Chrome/85.0.4183.121 Safari/537.36",26,"[0.9, 0.5, 0.1]","[0.8, 0.4, 0.2]","[u'blue', u'black', u'red']","[u'left', u'middle', u'right']","[0.9, 0.5, 0.1]","[u'low', u'high', u'medium']","blue",49,"left","low","False","False",1533,1100,NA
"A5KY3NHA1TEU1","Sat Oct 03 2020 15:29:30 GMT-0400 (Eastern Daylight Time)","Sat Oct 03 2020 15:48:33 GMT-0400 (Eastern Daylight Time)","Mozilla/5.0 (Windows NT 6.3; Win64; x64) AppleWebKit/537.36 (KHTML, like Gecko) Chrome/85.0.4183.121 Safari/537.36",27,"[0.9, 0.5, 0.1]","[0.8, 0.4, 0.2]","[u'blue', u'black', u'red']","[u'left', u'middle', u'right']","[0.9, 0.5, 0.1]","[u'low', u'high', u'medium']","black",50,"middle","high","False","False",854,1050,NA
"A5KY3NHA1TEU1","Sat Oct 03 2020 15:29:30 GMT-0400 (Eastern Daylight Time)","Sat Oct 03 2020 15:48:33 GMT-0400 (Eastern Daylight Time)","Mozilla/5.0 (Windows NT 6.3; Win64; x64) AppleWebKit/537.36 (KHTML, like Gecko) Chrome/85.0.4183.121 Safari/537.36",28,"[0.9, 0.5, 0.1]","[0.8, 0.4, 0.2]","[u'blue', u'black', u'red']","[u'left', u'middle', u'right']","[0.9, 0.5, 0.1]","[u'low', u'high', u'medium']","red",51,"right","medium","True","False",697,1150,NA
"A5KY3NHA1TEU1","Sat Oct 03 2020 15:29:30 GMT-0400 (Eastern Daylight Time)","Sat Oct 03 2020 15:48:33 GMT-0400 (Eastern Daylight Time)","Mozilla/5.0 (Windows NT 6.3; Win64; x64) AppleWebKit/537.36 (KHTML, like Gecko) Chrome/85.0.4183.121 Safari/537.36",29,"[0.9, 0.5, 0.1]","[0.8, 0.4, 0.2]","[u'blue', u'black', u'red']","[u'left', u'middle', u'right']","[0.9, 0.5, 0.1]","[u'low', u'high', u'medium']","black",50,"middle","high","True","False",922,1250,NA
"A5KY3NHA1TEU1","Sat Oct 03 2020 15:29:30 GMT-0400 (Eastern Daylight Time)","Sat Oct 03 2020 15:48:33 GMT-0400 (Eastern Daylight Time)","Mozilla/5.0 (Windows NT 6.3; Win64; x64) AppleWebKit/537.36 (KHTML, like Gecko) Chrome/85.0.4183.121 Safari/537.36",30,"[0.9, 0.5, 0.1]","[0.8, 0.4, 0.2]","[u'blue', u'black', u'red']","[u'left', u'middle', u'right']","[0.9, 0.5, 0.1]","[u'low', u'high', u'medium']","blue",49,"left","low","False","False",1047,1200,NA
"A5KY3NHA1TEU1","Sat Oct 03 2020 15:29:30 GMT-0400 (Eastern Daylight Time)","Sat Oct 03 2020 15:48:33 GMT-0400 (Eastern Daylight Time)","Mozilla/5.0 (Windows NT 6.3; Win64; x64) AppleWebKit/537.36 (KHTML, like Gecko) Chrome/85.0.4183.121 Safari/537.36",31,"[0.9, 0.5, 0.1]","[0.8, 0.4, 0.2]","[u'blue', u'black', u'red']","[u'left', u'middle', u'right']","[0.9, 0.5, 0.1]","[u'low', u'high', u'medium']","black",50,"middle","high","True","False",195,1300,NA
"A5KY3NHA1TEU1","Sat Oct 03 2020 15:29:30 GMT-0400 (Eastern Daylight Time)","Sat Oct 03 2020 15:48:33 GMT-0400 (Eastern Daylight Time)","Mozilla/5.0 (Windows NT 6.3; Win64; x64) AppleWebKit/537.36 (KHTML, like Gecko) Chrome/85.0.4183.121 Safari/537.36",32,"[0.9, 0.5, 0.1]","[0.8, 0.4, 0.2]","[u'blue', u'black', u'red']","[u'left', u'middle', u'right']","[0.9, 0.5, 0.1]","[u'low', u'high', u'medium']","red",51,"right","medium","True","False",260,1400,NA
"A5KY3NHA1TEU1","Sat Oct 03 2020 15:29:30 GMT-0400 (Eastern Daylight Time)","Sat Oct 03 2020 15:48:33 GMT-0400 (Eastern Daylight Time)","Mozilla/5.0 (Windows NT 6.3; Win64; x64) AppleWebKit/537.36 (KHTML, like Gecko) Chrome/85.0.4183.121 Safari/537.36",33,"[0.9, 0.5, 0.1]","[0.8, 0.4, 0.2]","[u'blue', u'black', u'red']","[u'left', u'middle', u'right']","[0.9, 0.5, 0.1]","[u'low', u'high', u'medium']","black",50,"middle","high","True","False",386,1500,NA
"A5KY3NHA1TEU1","Sat Oct 03 2020 15:29:30 GMT-0400 (Eastern Daylight Time)","Sat Oct 03 2020 15:48:33 GMT-0400 (Eastern Daylight Time)","Mozilla/5.0 (Windows NT 6.3; Win64; x64) AppleWebKit/537.36 (KHTML, like Gecko) Chrome/85.0.4183.121 Safari/537.36",34,"[0.9, 0.5, 0.1]","[0.8, 0.4, 0.2]","[u'blue', u'black', u'red']","[u'left', u'middle', u'right']","[0.9, 0.5, 0.1]","[u'low', u'high', u'medium']","red",51,"right","medium","True","False",881,1600,NA
"A5KY3NHA1TEU1","Sat Oct 03 2020 15:29:30 GMT-0400 (Eastern Daylight Time)","Sat Oct 03 2020 15:48:33 GMT-0400 (Eastern Daylight Time)","Mozilla/5.0 (Windows NT 6.3; Win64; x64) AppleWebKit/537.36 (KHTML, like Gecko) Chrome/85.0.4183.121 Safari/537.36",35,"[0.9, 0.5, 0.1]","[0.8, 0.4, 0.2]","[u'blue', u'black', u'red']","[u'left', u'middle', u'right']","[0.9, 0.5, 0.1]","[u'low', u'high', u'medium']","black",50,"middle","high","True","False",207,1700,NA
"A5KY3NHA1TEU1","Sat Oct 03 2020 15:29:30 GMT-0400 (Eastern Daylight Time)","Sat Oct 03 2020 15:48:33 GMT-0400 (Eastern Daylight Time)","Mozilla/5.0 (Windows NT 6.3; Win64; x64) AppleWebKit/537.36 (KHTML, like Gecko) Chrome/85.0.4183.121 Safari/537.36",36,"[0.9, 0.5, 0.1]","[0.8, 0.4, 0.2]","[u'blue', u'black', u'red']","[u'left', u'middle', u'right']","[0.9, 0.5, 0.1]","[u'low', u'high', u'medium']","blue",49,"left","low","False","False",578,1650,NA
"A5KY3NHA1TEU1","Sat Oct 03 2020 15:29:30 GMT-0400 (Eastern Daylight Time)","Sat Oct 03 2020 15:48:33 GMT-0400 (Eastern Daylight Time)","Mozilla/5.0 (Windows NT 6.3; Win64; x64) AppleWebKit/537.36 (KHTML, like Gecko) Chrome/85.0.4183.121 Safari/537.36",37,"[0.9, 0.5, 0.1]","[0.8, 0.4, 0.2]","[u'blue', u'black', u'red']","[u'left', u'middle', u'right']","[0.9, 0.5, 0.1]","[u'low', u'high', u'medium']","black",50,"middle","high","True","False",668,1750,NA
"A5KY3NHA1TEU1","Sat Oct 03 2020 15:29:30 GMT-0400 (Eastern Daylight Time)","Sat Oct 03 2020 15:48:33 GMT-0400 (Eastern Daylight Time)","Mozilla/5.0 (Windows NT 6.3; Win64; x64) AppleWebKit/537.36 (KHTML, like Gecko) Chrome/85.0.4183.121 Safari/537.36",38,"[0.9, 0.5, 0.1]","[0.8, 0.4, 0.2]","[u'blue', u'black', u'red']","[u'left', u'middle', u'right']","[0.9, 0.5, 0.1]","[u'low', u'high', u'medium']","red",51,"right","medium","False","False",489,1700,NA
"A5KY3NHA1TEU1","Sat Oct 03 2020 15:29:30 GMT-0400 (Eastern Daylight Time)","Sat Oct 03 2020 15:48:33 GMT-0400 (Eastern Daylight Time)","Mozilla/5.0 (Windows NT 6.3; Win64; x64) AppleWebKit/537.36 (KHTML, like Gecko) Chrome/85.0.4183.121 Safari/537.36",39,"[0.9, 0.5, 0.1]","[0.8, 0.4, 0.2]","[u'blue', u'black', u'red']","[u'left', u'middle', u'right']","[0.9, 0.5, 0.1]","[u'low', u'high', u'medium']","black",50,"middle","high","True","False",850,1800,NA
"A5KY3NHA1TEU1","Sat Oct 03 2020 15:29:30 GMT-0400 (Eastern Daylight Time)","Sat Oct 03 2020 15:48:33 GMT-0400 (Eastern Daylight Time)","Mozilla/5.0 (Windows NT 6.3; Win64; x64) AppleWebKit/537.36 (KHTML, like Gecko) Chrome/85.0.4183.121 Safari/537.36",40,"[0.9, 0.5, 0.1]","[0.8, 0.4, 0.2]","[u'blue', u'black', u'red']","[u'left', u'middle', u'right']","[0.9, 0.5, 0.1]","[u'low', u'high', u'medium']","blue",49,"left","low","False","False",1018,1750,NA
"A5KY3NHA1TEU1","Sat Oct 03 2020 15:29:30 GMT-0400 (Eastern Daylight Time)","Sat Oct 03 2020 15:48:33 GMT-0400 (Eastern Daylight Time)","Mozilla/5.0 (Windows NT 6.3; Win64; x64) AppleWebKit/537.36 (KHTML, like Gecko) Chrome/85.0.4183.121 Safari/537.36",41,"[0.9, 0.5, 0.1]","[0.8, 0.4, 0.2]","[u'blue', u'black', u'red']","[u'left', u'middle', u'right']","[0.9, 0.5, 0.1]","[u'high', u'low', u'medium']","red",51,"right","medium","False","False",1318,1700,NA
"A5KY3NHA1TEU1","Sat Oct 03 2020 15:29:30 GMT-0400 (Eastern Daylight Time)","Sat Oct 03 2020 15:48:33 GMT-0400 (Eastern Daylight Time)","Mozilla/5.0 (Windows NT 6.3; Win64; x64) AppleWebKit/537.36 (KHTML, like Gecko) Chrome/85.0.4183.121 Safari/537.36",42,"[0.9, 0.5, 0.1]","[0.8, 0.4, 0.2]","[u'blue', u'black', u'red']","[u'left', u'middle', u'right']","[0.9, 0.5, 0.1]","[u'high', u'low', u'medium']","black",50,"middle","low","False","False",177,1650,NA
"A5KY3NHA1TEU1","Sat Oct 03 2020 15:29:30 GMT-0400 (Eastern Daylight Time)","Sat Oct 03 2020 15:48:33 GMT-0400 (Eastern Daylight Time)","Mozilla/5.0 (Windows NT 6.3; Win64; x64) AppleWebKit/537.36 (KHTML, like Gecko) Chrome/85.0.4183.121 Safari/537.36",43,"[0.9, 0.5, 0.1]","[0.8, 0.4, 0.2]","[u'blue', u'black', u'red']","[u'left', u'middle', u'right']","[0.9, 0.5, 0.1]","[u'high', u'low', u'medium']","blue",49,"left","high","True","False",368,1750,NA
"A5KY3NHA1TEU1","Sat Oct 03 2020 15:29:30 GMT-0400 (Eastern Daylight Time)","Sat Oct 03 2020 15:48:33 GMT-0400 (Eastern Daylight Time)","Mozilla/5.0 (Windows NT 6.3; Win64; x64) AppleWebKit/537.36 (KHTML, like Gecko) Chrome/85.0.4183.121 Safari/537.36",44,"[0.9, 0.5, 0.1]","[0.8, 0.4, 0.2]","[u'blue', u'black', u'red']","[u'left', u'middle', u'right']","[0.9, 0.5, 0.1]","[u'high', u'low', u'medium']","blue",49,"left","high","True","False",167,1850,NA
"A5KY3NHA1TEU1","Sat Oct 03 2020 15:29:30 GMT-0400 (Eastern Daylight Time)","Sat Oct 03 2020 15:48:33 GMT-0400 (Eastern Daylight Time)","Mozilla/5.0 (Windows NT 6.3; Win64; x64) AppleWebKit/537.36 (KHTML, like Gecko) Chrome/85.0.4183.121 Safari/537.36",45,"[0.9, 0.5, 0.1]","[0.8, 0.4, 0.2]","[u'blue', u'black', u'red']","[u'left', u'middle', u'right']","[0.9, 0.5, 0.1]","[u'high', u'low', u'medium']","blue",49,"left","high","True","False",199,1950,NA
"A5KY3NHA1TEU1","Sat Oct 03 2020 15:29:30 GMT-0400 (Eastern Daylight Time)","Sat Oct 03 2020 15:48:33 GMT-0400 (Eastern Daylight Time)","Mozilla/5.0 (Windows NT 6.3; Win64; x64) AppleWebKit/537.36 (KHTML, like Gecko) Chrome/85.0.4183.121 Safari/537.36",46,"[0.9, 0.5, 0.1]","[0.8, 0.4, 0.2]","[u'blue', u'black', u'red']","[u'left', u'middle', u'right']","[0.9, 0.5, 0.1]","[u'high', u'low', u'medium']","blue",49,"left","high","True","False",178,2050,NA
"A5KY3NHA1TEU1","Sat Oct 03 2020 15:29:30 GMT-0400 (Eastern Daylight Time)","Sat Oct 03 2020 15:48:33 GMT-0400 (Eastern Daylight Time)","Mozilla/5.0 (Windows NT 6.3; Win64; x64) AppleWebKit/537.36 (KHTML, like Gecko) Chrome/85.0.4183.121 Safari/537.36",47,"[0.9, 0.5, 0.1]","[0.8, 0.4, 0.2]","[u'blue', u'black', u'red']","[u'left', u'middle', u'right']","[0.9, 0.5, 0.1]","[u'high', u'low', u'medium']","blue",49,"left","high","True","False",117,2150,NA
"A5KY3NHA1TEU1","Sat Oct 03 2020 15:29:30 GMT-0400 (Eastern Daylight Time)","Sat Oct 03 2020 15:48:33 GMT-0400 (Eastern Daylight Time)","Mozilla/5.0 (Windows NT 6.3; Win64; x64) AppleWebKit/537.36 (KHTML, like Gecko) Chrome/85.0.4183.121 Safari/537.36",48,"[0.9, 0.5, 0.1]","[0.8, 0.4, 0.2]","[u'blue', u'black', u'red']","[u'left', u'middle', u'right']","[0.9, 0.5, 0.1]","[u'high', u'low', u'medium']","blue",49,"left","high","True","False",204,2250,NA
"A5KY3NHA1TEU1","Sat Oct 03 2020 15:29:30 GMT-0400 (Eastern Daylight Time)","Sat Oct 03 2020 15:48:33 GMT-0400 (Eastern Daylight Time)","Mozilla/5.0 (Windows NT 6.3; Win64; x64) AppleWebKit/537.36 (KHTML, like Gecko) Chrome/85.0.4183.121 Safari/537.36",49,"[0.9, 0.5, 0.1]","[0.8, 0.4, 0.2]","[u'blue', u'black', u'red']","[u'left', u'middle', u'right']","[0.9, 0.5, 0.1]","[u'high', u'low', u'medium']","blue",49,"left","high","True","False",492,2350,NA
"A5KY3NHA1TEU1","Sat Oct 03 2020 15:29:30 GMT-0400 (Eastern Daylight Time)","Sat Oct 03 2020 15:48:33 GMT-0400 (Eastern Daylight Time)","Mozilla/5.0 (Windows NT 6.3; Win64; x64) AppleWebKit/537.36 (KHTML, like Gecko) Chrome/85.0.4183.121 Safari/537.36",50,"[0.9, 0.5, 0.1]","[0.8, 0.4, 0.2]","[u'blue', u'black', u'red']","[u'left', u'middle', u'right']","[0.9, 0.5, 0.1]","[u'high', u'low', u'medium']","blue",49,"left","high","True","False",189,2450,NA
"A5KY3NHA1TEU1","Sat Oct 03 2020 15:29:30 GMT-0400 (Eastern Daylight Time)","Sat Oct 03 2020 15:48:33 GMT-0400 (Eastern Daylight Time)","Mozilla/5.0 (Windows NT 6.3; Win64; x64) AppleWebKit/537.36 (KHTML, like Gecko) Chrome/85.0.4183.121 Safari/537.36",51,"[0.9, 0.5, 0.1]","[0.8, 0.4, 0.2]","[u'blue', u'black', u'red']","[u'left', u'middle', u'right']","[0.9, 0.5, 0.1]","[u'high', u'low', u'medium']","blue",49,"left","high","True","True",214,2550,NA
"A5KY3NHA1TEU1","Sat Oct 03 2020 15:29:30 GMT-0400 (Eastern Daylight Time)","Sat Oct 03 2020 15:48:33 GMT-0400 (Eastern Daylight Time)","Mozilla/5.0 (Windows NT 6.3; Win64; x64) AppleWebKit/537.36 (KHTML, like Gecko) Chrome/85.0.4183.121 Safari/537.36",52,"[0.9, 0.5, 0.1]","[0.8, 0.4, 0.2]","[u'blue', u'black', u'red']","[u'left', u'middle', u'right']","[0.9, 0.5, 0.1]","[u'low', u'medium', u'high']","black",50,"middle","medium","True","False",208,2650,NA
"A5KY3NHA1TEU1","Sat Oct 03 2020 15:29:30 GMT-0400 (Eastern Daylight Time)","Sat Oct 03 2020 15:48:33 GMT-0400 (Eastern Daylight Time)","Mozilla/5.0 (Windows NT 6.3; Win64; x64) AppleWebKit/537.36 (KHTML, like Gecko) Chrome/85.0.4183.121 Safari/537.36",53,"[0.9, 0.5, 0.1]","[0.8, 0.4, 0.2]","[u'blue', u'black', u'red']","[u'left', u'middle', u'right']","[0.9, 0.5, 0.1]","[u'low', u'medium', u'high']","black",50,"middle","medium","False","False",131,2600,NA
"A5KY3NHA1TEU1","Sat Oct 03 2020 15:29:30 GMT-0400 (Eastern Daylight Time)","Sat Oct 03 2020 15:48:33 GMT-0400 (Eastern Daylight Time)","Mozilla/5.0 (Windows NT 6.3; Win64; x64) AppleWebKit/537.36 (KHTML, like Gecko) Chrome/85.0.4183.121 Safari/537.36",54,"[0.9, 0.5, 0.1]","[0.8, 0.4, 0.2]","[u'blue', u'black', u'red']","[u'left', u'middle', u'right']","[0.9, 0.5, 0.1]","[u'low', u'medium', u'high']","red",51,"right","high","True","False",459,2700,NA
"A5KY3NHA1TEU1","Sat Oct 03 2020 15:29:30 GMT-0400 (Eastern Daylight Time)","Sat Oct 03 2020 15:48:33 GMT-0400 (Eastern Daylight Time)","Mozilla/5.0 (Windows NT 6.3; Win64; x64) AppleWebKit/537.36 (KHTML, like Gecko) Chrome/85.0.4183.121 Safari/537.36",55,"[0.9, 0.5, 0.1]","[0.8, 0.4, 0.2]","[u'blue', u'black', u'red']","[u'left', u'middle', u'right']","[0.9, 0.5, 0.1]","[u'low', u'medium', u'high']","red",51,"right","high","True","False",187,2800,NA
"A5KY3NHA1TEU1","Sat Oct 03 2020 15:29:30 GMT-0400 (Eastern Daylight Time)","Sat Oct 03 2020 15:48:33 GMT-0400 (Eastern Daylight Time)","Mozilla/5.0 (Windows NT 6.3; Win64; x64) AppleWebKit/537.36 (KHTML, like Gecko) Chrome/85.0.4183.121 Safari/537.36",56,"[0.9, 0.5, 0.1]","[0.8, 0.4, 0.2]","[u'blue', u'black', u'red']","[u'left', u'middle', u'right']","[0.9, 0.5, 0.1]","[u'low', u'medium', u'high']","red",51,"right","high","True","False",332,2900,NA
"A5KY3NHA1TEU1","Sat Oct 03 2020 15:29:30 GMT-0400 (Eastern Daylight Time)","Sat Oct 03 2020 15:48:33 GMT-0400 (Eastern Daylight Time)","Mozilla/5.0 (Windows NT 6.3; Win64; x64) AppleWebKit/537.36 (KHTML, like Gecko) Chrome/85.0.4183.121 Safari/537.36",57,"[0.9, 0.5, 0.1]","[0.8, 0.4, 0.2]","[u'blue', u'black', u'red']","[u'left', u'middle', u'right']","[0.9, 0.5, 0.1]","[u'low', u'medium', u'high']","blue",49,"left","low","False","False",173,2850,NA
"A5KY3NHA1TEU1","Sat Oct 03 2020 15:29:30 GMT-0400 (Eastern Daylight Time)","Sat Oct 03 2020 15:48:33 GMT-0400 (Eastern Daylight Time)","Mozilla/5.0 (Windows NT 6.3; Win64; x64) AppleWebKit/537.36 (KHTML, like Gecko) Chrome/85.0.4183.121 Safari/537.36",58,"[0.9, 0.5, 0.1]","[0.8, 0.4, 0.2]","[u'blue', u'black', u'red']","[u'left', u'middle', u'right']","[0.9, 0.5, 0.1]","[u'low', u'medium', u'high']","red",51,"right","high","True","False",189,2950,NA
"A5KY3NHA1TEU1","Sat Oct 03 2020 15:29:30 GMT-0400 (Eastern Daylight Time)","Sat Oct 03 2020 15:48:33 GMT-0400 (Eastern Daylight Time)","Mozilla/5.0 (Windows NT 6.3; Win64; x64) AppleWebKit/537.36 (KHTML, like Gecko) Chrome/85.0.4183.121 Safari/537.36",59,"[0.9, 0.5, 0.1]","[0.8, 0.4, 0.2]","[u'blue', u'black', u'red']","[u'left', u'middle', u'right']","[0.9, 0.5, 0.1]","[u'low', u'medium', u'high']","red",51,"right","high","True","False",206,3050,NA
"A5KY3NHA1TEU1","Sat Oct 03 2020 15:29:30 GMT-0400 (Eastern Daylight Time)","Sat Oct 03 2020 15:48:33 GMT-0400 (Eastern Daylight Time)","Mozilla/5.0 (Windows NT 6.3; Win64; x64) AppleWebKit/537.36 (KHTML, like Gecko) Chrome/85.0.4183.121 Safari/537.36",60,"[0.9, 0.5, 0.1]","[0.8, 0.4, 0.2]","[u'blue', u'black', u'red']","[u'left', u'middle', u'right']","[0.9, 0.5, 0.1]","[u'low', u'medium', u'high']","red",51,"right","high","False","False",223,3000,NA
"A5KY3NHA1TEU1","Sat Oct 03 2020 15:29:30 GMT-0400 (Eastern Daylight Time)","Sat Oct 03 2020 15:48:33 GMT-0400 (Eastern Daylight Time)","Mozilla/5.0 (Windows NT 6.3; Win64; x64) AppleWebKit/537.36 (KHTML, like Gecko) Chrome/85.0.4183.121 Safari/537.36",61,"[0.9, 0.5, 0.1]","[0.8, 0.4, 0.2]","[u'blue', u'black', u'red']","[u'left', u'middle', u'right']","[0.9, 0.5, 0.1]","[u'low', u'medium', u'high']","black",50,"middle","medium","False","False",154,2950,NA
"A5KY3NHA1TEU1","Sat Oct 03 2020 15:29:30 GMT-0400 (Eastern Daylight Time)","Sat Oct 03 2020 15:48:33 GMT-0400 (Eastern Daylight Time)","Mozilla/5.0 (Windows NT 6.3; Win64; x64) AppleWebKit/537.36 (KHTML, like Gecko) Chrome/85.0.4183.121 Safari/537.36",62,"[0.9, 0.5, 0.1]","[0.8, 0.4, 0.2]","[u'blue', u'black', u'red']","[u'left', u'middle', u'right']","[0.9, 0.5, 0.1]","[u'low', u'medium', u'high']","blue",49,"left","low","False","False",258,2900,NA
"A5KY3NHA1TEU1","Sat Oct 03 2020 15:29:30 GMT-0400 (Eastern Daylight Time)","Sat Oct 03 2020 15:48:33 GMT-0400 (Eastern Daylight Time)","Mozilla/5.0 (Windows NT 6.3; Win64; x64) AppleWebKit/537.36 (KHTML, like Gecko) Chrome/85.0.4183.121 Safari/537.36",63,"[0.9, 0.5, 0.1]","[0.8, 0.4, 0.2]","[u'blue', u'black', u'red']","[u'left', u'middle', u'right']","[0.9, 0.5, 0.1]","[u'low', u'medium', u'high']","black",50,"middle","medium","False","False",530,2850,NA
"A5KY3NHA1TEU1","Sat Oct 03 2020 15:29:30 GMT-0400 (Eastern Daylight Time)","Sat Oct 03 2020 15:48:33 GMT-0400 (Eastern Daylight Time)","Mozilla/5.0 (Windows NT 6.3; Win64; x64) AppleWebKit/537.36 (KHTML, like Gecko) Chrome/85.0.4183.121 Safari/537.36",64,"[0.9, 0.5, 0.1]","[0.8, 0.4, 0.2]","[u'blue', u'black', u'red']","[u'left', u'middle', u'right']","[0.9, 0.5, 0.1]","[u'low', u'medium', u'high']","red",51,"right","high","True","False",47,2950,NA
"A5KY3NHA1TEU1","Sat Oct 03 2020 15:29:30 GMT-0400 (Eastern Daylight Time)","Sat Oct 03 2020 15:48:33 GMT-0400 (Eastern Daylight Time)","Mozilla/5.0 (Windows NT 6.3; Win64; x64) AppleWebKit/537.36 (KHTML, like Gecko) Chrome/85.0.4183.121 Safari/537.36",65,"[0.9, 0.5, 0.1]","[0.8, 0.4, 0.2]","[u'blue', u'black', u'red']","[u'left', u'middle', u'right']","[0.9, 0.5, 0.1]","[u'low', u'medium', u'high']","red",51,"right","high","True","False",221,3050,NA
"A5KY3NHA1TEU1","Sat Oct 03 2020 15:29:30 GMT-0400 (Eastern Daylight Time)","Sat Oct 03 2020 15:48:33 GMT-0400 (Eastern Daylight Time)","Mozilla/5.0 (Windows NT 6.3; Win64; x64) AppleWebKit/537.36 (KHTML, like Gecko) Chrome/85.0.4183.121 Safari/537.36",66,"[0.9, 0.5, 0.1]","[0.8, 0.4, 0.2]","[u'blue', u'black', u'red']","[u'left', u'middle', u'right']","[0.9, 0.5, 0.1]","[u'low', u'medium', u'high']","red",51,"right","high","True","False",1147,3150,NA
"A5KY3NHA1TEU1","Sat Oct 03 2020 15:29:30 GMT-0400 (Eastern Daylight Time)","Sat Oct 03 2020 15:48:33 GMT-0400 (Eastern Daylight Time)","Mozilla/5.0 (Windows NT 6.3; Win64; x64) AppleWebKit/537.36 (KHTML, like Gecko) Chrome/85.0.4183.121 Safari/537.36",67,"[0.9, 0.5, 0.1]","[0.8, 0.4, 0.2]","[u'blue', u'black', u'red']","[u'left', u'middle', u'right']","[0.9, 0.5, 0.1]","[u'low', u'medium', u'high']","red",51,"right","high","True","False",797,3250,NA
"A5KY3NHA1TEU1","Sat Oct 03 2020 15:29:30 GMT-0400 (Eastern Daylight Time)","Sat Oct 03 2020 15:48:33 GMT-0400 (Eastern Daylight Time)","Mozilla/5.0 (Windows NT 6.3; Win64; x64) AppleWebKit/537.36 (KHTML, like Gecko) Chrome/85.0.4183.121 Safari/537.36",68,"[0.9, 0.5, 0.1]","[0.8, 0.4, 0.2]","[u'blue', u'black', u'red']","[u'left', u'middle', u'right']","[0.9, 0.5, 0.1]","[u'low', u'medium', u'high']","red",51,"right","high","True","False",164,3350,NA
"A5KY3NHA1TEU1","Sat Oct 03 2020 15:29:30 GMT-0400 (Eastern Daylight Time)","Sat Oct 03 2020 15:48:33 GMT-0400 (Eastern Daylight Time)","Mozilla/5.0 (Windows NT 6.3; Win64; x64) AppleWebKit/537.36 (KHTML, like Gecko) Chrome/85.0.4183.121 Safari/537.36",69,"[0.9, 0.5, 0.1]","[0.8, 0.4, 0.2]","[u'blue', u'black', u'red']","[u'left', u'middle', u'right']","[0.9, 0.5, 0.1]","[u'low', u'medium', u'high']","black",50,"middle","medium","True","False",295,3450,NA
"A5KY3NHA1TEU1","Sat Oct 03 2020 15:29:30 GMT-0400 (Eastern Daylight Time)","Sat Oct 03 2020 15:48:33 GMT-0400 (Eastern Daylight Time)","Mozilla/5.0 (Windows NT 6.3; Win64; x64) AppleWebKit/537.36 (KHTML, like Gecko) Chrome/85.0.4183.121 Safari/537.36",70,"[0.9, 0.5, 0.1]","[0.8, 0.4, 0.2]","[u'blue', u'black', u'red']","[u'left', u'middle', u'right']","[0.9, 0.5, 0.1]","[u'low', u'medium', u'high']","blue",49,"left","low","False","False",180,3400,NA
"A5KY3NHA1TEU1","Sat Oct 03 2020 15:29:30 GMT-0400 (Eastern Daylight Time)","Sat Oct 03 2020 15:48:33 GMT-0400 (Eastern Daylight Time)","Mozilla/5.0 (Windows NT 6.3; Win64; x64) AppleWebKit/537.36 (KHTML, like Gecko) Chrome/85.0.4183.121 Safari/537.36",71,"[0.9, 0.5, 0.1]","[0.8, 0.4, 0.2]","[u'blue', u'black', u'red']","[u'left', u'middle', u'right']","[0.9, 0.5, 0.1]","[u'low', u'medium', u'high']","black",50,"middle","medium","False","False",206,3350,NA
"A5KY3NHA1TEU1","Sat Oct 03 2020 15:29:30 GMT-0400 (Eastern Daylight Time)","Sat Oct 03 2020 15:48:33 GMT-0400 (Eastern Daylight Time)","Mozilla/5.0 (Windows NT 6.3; Win64; x64) AppleWebKit/537.36 (KHTML, like Gecko) Chrome/85.0.4183.121 Safari/537.36",72,"[0.9, 0.5, 0.1]","[0.8, 0.4, 0.2]","[u'blue', u'black', u'red']","[u'left', u'middle', u'right']","[0.9, 0.5, 0.1]","[u'low', u'medium', u'high']","red",51,"right","high","True","False",96,3450,NA
"A5KY3NHA1TEU1","Sat Oct 03 2020 15:29:30 GMT-0400 (Eastern Daylight Time)","Sat Oct 03 2020 15:48:33 GMT-0400 (Eastern Daylight Time)","Mozilla/5.0 (Windows NT 6.3; Win64; x64) AppleWebKit/537.36 (KHTML, like Gecko) Chrome/85.0.4183.121 Safari/537.36",73,"[0.9, 0.5, 0.1]","[0.8, 0.4, 0.2]","[u'blue', u'black', u'red']","[u'left', u'middle', u'right']","[0.9, 0.5, 0.1]","[u'low', u'medium', u'high']","red",51,"right","high","True","False",71,3550,NA
"A5KY3NHA1TEU1","Sat Oct 03 2020 15:29:30 GMT-0400 (Eastern Daylight Time)","Sat Oct 03 2020 15:48:33 GMT-0400 (Eastern Daylight Time)","Mozilla/5.0 (Windows NT 6.3; Win64; x64) AppleWebKit/537.36 (KHTML, like Gecko) Chrome/85.0.4183.121 Safari/537.36",74,"[0.9, 0.5, 0.1]","[0.8, 0.4, 0.2]","[u'blue', u'black', u'red']","[u'left', u'middle', u'right']","[0.9, 0.5, 0.1]","[u'low', u'medium', u'high']","red",51,"right","high","True","False",277,3650,NA
"A5KY3NHA1TEU1","Sat Oct 03 2020 15:29:30 GMT-0400 (Eastern Daylight Time)","Sat Oct 03 2020 15:48:33 GMT-0400 (Eastern Daylight Time)","Mozilla/5.0 (Windows NT 6.3; Win64; x64) AppleWebKit/537.36 (KHTML, like Gecko) Chrome/85.0.4183.121 Safari/537.36",75,"[0.9, 0.5, 0.1]","[0.8, 0.4, 0.2]","[u'blue', u'black', u'red']","[u'left', u'middle', u'right']","[0.9, 0.5, 0.1]","[u'low', u'medium', u'high']","red",51,"right","high","True","False",369,3750,NA
"A5KY3NHA1TEU1","Sat Oct 03 2020 15:29:30 GMT-0400 (Eastern Daylight Time)","Sat Oct 03 2020 15:48:33 GMT-0400 (Eastern Daylight Time)","Mozilla/5.0 (Windows NT 6.3; Win64; x64) AppleWebKit/537.36 (KHTML, like Gecko) Chrome/85.0.4183.121 Safari/537.36",76,"[0.9, 0.5, 0.1]","[0.8, 0.4, 0.2]","[u'blue', u'black', u'red']","[u'left', u'middle', u'right']","[0.9, 0.5, 0.1]","[u'low', u'medium', u'high']","red",51,"right","high","True","False",838,3850,NA
"A5KY3NHA1TEU1","Sat Oct 03 2020 15:29:30 GMT-0400 (Eastern Daylight Time)","Sat Oct 03 2020 15:48:33 GMT-0400 (Eastern Daylight Time)","Mozilla/5.0 (Windows NT 6.3; Win64; x64) AppleWebKit/537.36 (KHTML, like Gecko) Chrome/85.0.4183.121 Safari/537.36",77,"[0.9, 0.5, 0.1]","[0.8, 0.4, 0.2]","[u'blue', u'black', u'red']","[u'left', u'middle', u'right']","[0.9, 0.5, 0.1]","[u'low', u'medium', u'high']","black",50,"middle","medium","False","False",415,3800,NA
"A5KY3NHA1TEU1","Sat Oct 03 2020 15:29:30 GMT-0400 (Eastern Daylight Time)","Sat Oct 03 2020 15:48:33 GMT-0400 (Eastern Daylight Time)","Mozilla/5.0 (Windows NT 6.3; Win64; x64) AppleWebKit/537.36 (KHTML, like Gecko) Chrome/85.0.4183.121 Safari/537.36",78,"[0.9, 0.5, 0.1]","[0.8, 0.4, 0.2]","[u'blue', u'black', u'red']","[u'left', u'middle', u'right']","[0.9, 0.5, 0.1]","[u'low', u'medium', u'high']","blue",49,"left","low","False","False",358,3750,NA
"A5KY3NHA1TEU1","Sat Oct 03 2020 15:29:30 GMT-0400 (Eastern Daylight Time)","Sat Oct 03 2020 15:48:33 GMT-0400 (Eastern Daylight Time)","Mozilla/5.0 (Windows NT 6.3; Win64; x64) AppleWebKit/537.36 (KHTML, like Gecko) Chrome/85.0.4183.121 Safari/537.36",79,"[0.9, 0.5, 0.1]","[0.8, 0.4, 0.2]","[u'blue', u'black', u'red']","[u'left', u'middle', u'right']","[0.9, 0.5, 0.1]","[u'low', u'medium', u'high']","red",51,"right","high","True","False",457,3850,NA
"A5KY3NHA1TEU1","Sat Oct 03 2020 15:29:30 GMT-0400 (Eastern Daylight Time)","Sat Oct 03 2020 15:48:33 GMT-0400 (Eastern Daylight Time)","Mozilla/5.0 (Windows NT 6.3; Win64; x64) AppleWebKit/537.36 (KHTML, like Gecko) Chrome/85.0.4183.121 Safari/537.36",80,"[0.9, 0.5, 0.1]","[0.8, 0.4, 0.2]","[u'blue', u'black', u'red']","[u'left', u'middle', u'right']","[0.9, 0.5, 0.1]","[u'low', u'medium', u'high']","red",51,"right","high","True","False",380,3950,NA
"A5KY3NHA1TEU1","Sat Oct 03 2020 15:29:30 GMT-0400 (Eastern Daylight Time)","Sat Oct 03 2020 15:48:33 GMT-0400 (Eastern Daylight Time)","Mozilla/5.0 (Windows NT 6.3; Win64; x64) AppleWebKit/537.36 (KHTML, like Gecko) Chrome/85.0.4183.121 Safari/537.36",81,"[0.9, 0.5, 0.1]","[0.8, 0.4, 0.2]","[u'blue', u'black', u'red']","[u'left', u'middle', u'right']","[0.8, 0.4, 0.2]","[u'high', u'medium', u'low']","black",50,"middle","medium","True","False",1388,4050,NA
"A5KY3NHA1TEU1","Sat Oct 03 2020 15:29:30 GMT-0400 (Eastern Daylight Time)","Sat Oct 03 2020 15:48:33 GMT-0400 (Eastern Daylight Time)","Mozilla/5.0 (Windows NT 6.3; Win64; x64) AppleWebKit/537.36 (KHTML, like Gecko) Chrome/85.0.4183.121 Safari/537.36",82,"[0.9, 0.5, 0.1]","[0.8, 0.4, 0.2]","[u'blue', u'black', u'red']","[u'left', u'middle', u'right']","[0.8, 0.4, 0.2]","[u'high', u'medium', u'low']","red",51,"right","low","False","False",277,4000,NA
"A5KY3NHA1TEU1","Sat Oct 03 2020 15:29:30 GMT-0400 (Eastern Daylight Time)","Sat Oct 03 2020 15:48:33 GMT-0400 (Eastern Daylight Time)","Mozilla/5.0 (Windows NT 6.3; Win64; x64) AppleWebKit/537.36 (KHTML, like Gecko) Chrome/85.0.4183.121 Safari/537.36",83,"[0.9, 0.5, 0.1]","[0.8, 0.4, 0.2]","[u'blue', u'black', u'red']","[u'left', u'middle', u'right']","[0.8, 0.4, 0.2]","[u'high', u'medium', u'low']","blue",49,"left","high","True","False",1310,4100,NA
"A5KY3NHA1TEU1","Sat Oct 03 2020 15:29:30 GMT-0400 (Eastern Daylight Time)","Sat Oct 03 2020 15:48:33 GMT-0400 (Eastern Daylight Time)","Mozilla/5.0 (Windows NT 6.3; Win64; x64) AppleWebKit/537.36 (KHTML, like Gecko) Chrome/85.0.4183.121 Safari/537.36",84,"[0.9, 0.5, 0.1]","[0.8, 0.4, 0.2]","[u'blue', u'black', u'red']","[u'left', u'middle', u'right']","[0.8, 0.4, 0.2]","[u'high', u'medium', u'low']","black",50,"middle","medium","False","False",623,4050,NA
"A5KY3NHA1TEU1","Sat Oct 03 2020 15:29:30 GMT-0400 (Eastern Daylight Time)","Sat Oct 03 2020 15:48:33 GMT-0400 (Eastern Daylight Time)","Mozilla/5.0 (Windows NT 6.3; Win64; x64) AppleWebKit/537.36 (KHTML, like Gecko) Chrome/85.0.4183.121 Safari/537.36",85,"[0.9, 0.5, 0.1]","[0.8, 0.4, 0.2]","[u'blue', u'black', u'red']","[u'left', u'middle', u'right']","[0.8, 0.4, 0.2]","[u'high', u'medium', u'low']","red",51,"right","low","False","False",247,4000,NA
"A5KY3NHA1TEU1","Sat Oct 03 2020 15:29:30 GMT-0400 (Eastern Daylight Time)","Sat Oct 03 2020 15:48:33 GMT-0400 (Eastern Daylight Time)","Mozilla/5.0 (Windows NT 6.3; Win64; x64) AppleWebKit/537.36 (KHTML, like Gecko) Chrome/85.0.4183.121 Safari/537.36",86,"[0.9, 0.5, 0.1]","[0.8, 0.4, 0.2]","[u'blue', u'black', u'red']","[u'left', u'middle', u'right']","[0.8, 0.4, 0.2]","[u'high', u'medium', u'low']","blue",49,"left","high","True","False",560,4100,NA
"A5KY3NHA1TEU1","Sat Oct 03 2020 15:29:30 GMT-0400 (Eastern Daylight Time)","Sat Oct 03 2020 15:48:33 GMT-0400 (Eastern Daylight Time)","Mozilla/5.0 (Windows NT 6.3; Win64; x64) AppleWebKit/537.36 (KHTML, like Gecko) Chrome/85.0.4183.121 Safari/537.36",87,"[0.9, 0.5, 0.1]","[0.8, 0.4, 0.2]","[u'blue', u'black', u'red']","[u'left', u'middle', u'right']","[0.8, 0.4, 0.2]","[u'high', u'medium', u'low']","black",50,"middle","medium","False","False",347,4050,NA
"A5KY3NHA1TEU1","Sat Oct 03 2020 15:29:30 GMT-0400 (Eastern Daylight Time)","Sat Oct 03 2020 15:48:33 GMT-0400 (Eastern Daylight Time)","Mozilla/5.0 (Windows NT 6.3; Win64; x64) AppleWebKit/537.36 (KHTML, like Gecko) Chrome/85.0.4183.121 Safari/537.36",88,"[0.9, 0.5, 0.1]","[0.8, 0.4, 0.2]","[u'blue', u'black', u'red']","[u'left', u'middle', u'right']","[0.8, 0.4, 0.2]","[u'high', u'medium', u'low']","red",51,"right","low","False","False",155,4000,NA
"A5KY3NHA1TEU1","Sat Oct 03 2020 15:29:30 GMT-0400 (Eastern Daylight Time)","Sat Oct 03 2020 15:48:33 GMT-0400 (Eastern Daylight Time)","Mozilla/5.0 (Windows NT 6.3; Win64; x64) AppleWebKit/537.36 (KHTML, like Gecko) Chrome/85.0.4183.121 Safari/537.36",89,"[0.9, 0.5, 0.1]","[0.8, 0.4, 0.2]","[u'blue', u'black', u'red']","[u'left', u'middle', u'right']","[0.8, 0.4, 0.2]","[u'high', u'medium', u'low']","black",50,"middle","medium","True","False",100,4100,NA
"A5KY3NHA1TEU1","Sat Oct 03 2020 15:29:30 GMT-0400 (Eastern Daylight Time)","Sat Oct 03 2020 15:48:33 GMT-0400 (Eastern Daylight Time)","Mozilla/5.0 (Windows NT 6.3; Win64; x64) AppleWebKit/537.36 (KHTML, like Gecko) Chrome/85.0.4183.121 Safari/537.36",90,"[0.9, 0.5, 0.1]","[0.8, 0.4, 0.2]","[u'blue', u'black', u'red']","[u'left', u'middle', u'right']","[0.8, 0.4, 0.2]","[u'high', u'medium', u'low']","blue",49,"left","high","True","False",186,4200,NA
"A5KY3NHA1TEU1","Sat Oct 03 2020 15:29:30 GMT-0400 (Eastern Daylight Time)","Sat Oct 03 2020 15:48:33 GMT-0400 (Eastern Daylight Time)","Mozilla/5.0 (Windows NT 6.3; Win64; x64) AppleWebKit/537.36 (KHTML, like Gecko) Chrome/85.0.4183.121 Safari/537.36",91,"[0.9, 0.5, 0.1]","[0.8, 0.4, 0.2]","[u'blue', u'black', u'red']","[u'left', u'middle', u'right']","[0.8, 0.4, 0.2]","[u'high', u'medium', u'low']","black",50,"middle","medium","False","False",937,4150,NA
"A5KY3NHA1TEU1","Sat Oct 03 2020 15:29:30 GMT-0400 (Eastern Daylight Time)","Sat Oct 03 2020 15:48:33 GMT-0400 (Eastern Daylight Time)","Mozilla/5.0 (Windows NT 6.3; Win64; x64) AppleWebKit/537.36 (KHTML, like Gecko) Chrome/85.0.4183.121 Safari/537.36",92,"[0.9, 0.5, 0.1]","[0.8, 0.4, 0.2]","[u'blue', u'black', u'red']","[u'left', u'middle', u'right']","[0.8, 0.4, 0.2]","[u'high', u'medium', u'low']","blue",49,"left","high","True","False",176,4250,NA
"A5KY3NHA1TEU1","Sat Oct 03 2020 15:29:30 GMT-0400 (Eastern Daylight Time)","Sat Oct 03 2020 15:48:33 GMT-0400 (Eastern Daylight Time)","Mozilla/5.0 (Windows NT 6.3; Win64; x64) AppleWebKit/537.36 (KHTML, like Gecko) Chrome/85.0.4183.121 Safari/537.36",93,"[0.9, 0.5, 0.1]","[0.8, 0.4, 0.2]","[u'blue', u'black', u'red']","[u'left', u'middle', u'right']","[0.8, 0.4, 0.2]","[u'high', u'medium', u'low']","black",50,"middle","medium","False","False",360,4200,NA
"A5KY3NHA1TEU1","Sat Oct 03 2020 15:29:30 GMT-0400 (Eastern Daylight Time)","Sat Oct 03 2020 15:48:33 GMT-0400 (Eastern Daylight Time)","Mozilla/5.0 (Windows NT 6.3; Win64; x64) AppleWebKit/537.36 (KHTML, like Gecko) Chrome/85.0.4183.121 Safari/537.36",94,"[0.9, 0.5, 0.1]","[0.8, 0.4, 0.2]","[u'blue', u'black', u'red']","[u'left', u'middle', u'right']","[0.8, 0.4, 0.2]","[u'high', u'medium', u'low']","blue",49,"left","high","True","False",39,4300,NA
"A5KY3NHA1TEU1","Sat Oct 03 2020 15:29:30 GMT-0400 (Eastern Daylight Time)","Sat Oct 03 2020 15:48:33 GMT-0400 (Eastern Daylight Time)","Mozilla/5.0 (Windows NT 6.3; Win64; x64) AppleWebKit/537.36 (KHTML, like Gecko) Chrome/85.0.4183.121 Safari/537.36",95,"[0.9, 0.5, 0.1]","[0.8, 0.4, 0.2]","[u'blue', u'black', u'red']","[u'left', u'middle', u'right']","[0.8, 0.4, 0.2]","[u'high', u'medium', u'low']","red",51,"right","low","True","False",375,4400,NA
"A5KY3NHA1TEU1","Sat Oct 03 2020 15:29:30 GMT-0400 (Eastern Daylight Time)","Sat Oct 03 2020 15:48:33 GMT-0400 (Eastern Daylight Time)","Mozilla/5.0 (Windows NT 6.3; Win64; x64) AppleWebKit/537.36 (KHTML, like Gecko) Chrome/85.0.4183.121 Safari/537.36",96,"[0.9, 0.5, 0.1]","[0.8, 0.4, 0.2]","[u'blue', u'black', u'red']","[u'left', u'middle', u'right']","[0.8, 0.4, 0.2]","[u'high', u'medium', u'low']","black",50,"middle","medium","True","False",1415,4500,NA
"A5KY3NHA1TEU1","Sat Oct 03 2020 15:29:30 GMT-0400 (Eastern Daylight Time)","Sat Oct 03 2020 15:48:33 GMT-0400 (Eastern Daylight Time)","Mozilla/5.0 (Windows NT 6.3; Win64; x64) AppleWebKit/537.36 (KHTML, like Gecko) Chrome/85.0.4183.121 Safari/537.36",97,"[0.9, 0.5, 0.1]","[0.8, 0.4, 0.2]","[u'blue', u'black', u'red']","[u'left', u'middle', u'right']","[0.8, 0.4, 0.2]","[u'high', u'medium', u'low']","blue",49,"left","high","True","False",594,4600,NA
"A5KY3NHA1TEU1","Sat Oct 03 2020 15:29:30 GMT-0400 (Eastern Daylight Time)","Sat Oct 03 2020 15:48:33 GMT-0400 (Eastern Daylight Time)","Mozilla/5.0 (Windows NT 6.3; Win64; x64) AppleWebKit/537.36 (KHTML, like Gecko) Chrome/85.0.4183.121 Safari/537.36",98,"[0.9, 0.5, 0.1]","[0.8, 0.4, 0.2]","[u'blue', u'black', u'red']","[u'left', u'middle', u'right']","[0.8, 0.4, 0.2]","[u'high', u'medium', u'low']","black",50,"middle","medium","True","False",287,4700,NA
"A5KY3NHA1TEU1","Sat Oct 03 2020 15:29:30 GMT-0400 (Eastern Daylight Time)","Sat Oct 03 2020 15:48:33 GMT-0400 (Eastern Daylight Time)","Mozilla/5.0 (Windows NT 6.3; Win64; x64) AppleWebKit/537.36 (KHTML, like Gecko) Chrome/85.0.4183.121 Safari/537.36",99,"[0.9, 0.5, 0.1]","[0.8, 0.4, 0.2]","[u'blue', u'black', u'red']","[u'left', u'middle', u'right']","[0.8, 0.4, 0.2]","[u'high', u'medium', u'low']","red",51,"right","low","False","False",198,4650,NA
"A5KY3NHA1TEU1","Sat Oct 03 2020 15:29:30 GMT-0400 (Eastern Daylight Time)","Sat Oct 03 2020 15:48:33 GMT-0400 (Eastern Daylight Time)","Mozilla/5.0 (Windows NT 6.3; Win64; x64) AppleWebKit/537.36 (KHTML, like Gecko) Chrome/85.0.4183.121 Safari/537.36",100,"[0.9, 0.5, 0.1]","[0.8, 0.4, 0.2]","[u'blue', u'black', u'red']","[u'left', u'middle', u'right']","[0.8, 0.4, 0.2]","[u'high', u'medium', u'low']","black",50,"middle","medium","False","False",830,4600,NA
"A5KY3NHA1TEU1","Sat Oct 03 2020 15:29:30 GMT-0400 (Eastern Daylight Time)","Sat Oct 03 2020 15:48:33 GMT-0400 (Eastern Daylight Time)","Mozilla/5.0 (Windows NT 6.3; Win64; x64) AppleWebKit/537.36 (KHTML, like Gecko) Chrome/85.0.4183.121 Safari/537.36",101,"[0.9, 0.5, 0.1]","[0.8, 0.4, 0.2]","[u'blue', u'black', u'red']","[u'left', u'middle', u'right']","[0.8, 0.4, 0.2]","[u'high', u'medium', u'low']","blue",49,"left","high","False","False",106,4550,NA
"A5KY3NHA1TEU1","Sat Oct 03 2020 15:29:30 GMT-0400 (Eastern Daylight Time)","Sat Oct 03 2020 15:48:33 GMT-0400 (Eastern Daylight Time)","Mozilla/5.0 (Windows NT 6.3; Win64; x64) AppleWebKit/537.36 (KHTML, like Gecko) Chrome/85.0.4183.121 Safari/537.36",102,"[0.9, 0.5, 0.1]","[0.8, 0.4, 0.2]","[u'blue', u'black', u'red']","[u'left', u'middle', u'right']","[0.8, 0.4, 0.2]","[u'high', u'medium', u'low']","red",51,"right","low","False","False",365,4500,NA
"A5KY3NHA1TEU1","Sat Oct 03 2020 15:29:30 GMT-0400 (Eastern Daylight Time)","Sat Oct 03 2020 15:48:33 GMT-0400 (Eastern Daylight Time)","Mozilla/5.0 (Windows NT 6.3; Win64; x64) AppleWebKit/537.36 (KHTML, like Gecko) Chrome/85.0.4183.121 Safari/537.36",103,"[0.9, 0.5, 0.1]","[0.8, 0.4, 0.2]","[u'blue', u'black', u'red']","[u'left', u'middle', u'right']","[0.8, 0.4, 0.2]","[u'high', u'medium', u'low']","black",50,"middle","medium","False","False",59,4450,NA
"A5KY3NHA1TEU1","Sat Oct 03 2020 15:29:30 GMT-0400 (Eastern Daylight Time)","Sat Oct 03 2020 15:48:33 GMT-0400 (Eastern Daylight Time)","Mozilla/5.0 (Windows NT 6.3; Win64; x64) AppleWebKit/537.36 (KHTML, like Gecko) Chrome/85.0.4183.121 Safari/537.36",104,"[0.9, 0.5, 0.1]","[0.8, 0.4, 0.2]","[u'blue', u'black', u'red']","[u'left', u'middle', u'right']","[0.8, 0.4, 0.2]","[u'high', u'medium', u'low']","blue",49,"left","high","True","False",381,4550,NA
"A5KY3NHA1TEU1","Sat Oct 03 2020 15:29:30 GMT-0400 (Eastern Daylight Time)","Sat Oct 03 2020 15:48:33 GMT-0400 (Eastern Daylight Time)","Mozilla/5.0 (Windows NT 6.3; Win64; x64) AppleWebKit/537.36 (KHTML, like Gecko) Chrome/85.0.4183.121 Safari/537.36",105,"[0.9, 0.5, 0.1]","[0.8, 0.4, 0.2]","[u'blue', u'black', u'red']","[u'left', u'middle', u'right']","[0.8, 0.4, 0.2]","[u'high', u'medium', u'low']","black",50,"middle","medium","False","False",321,4500,NA
"A5KY3NHA1TEU1","Sat Oct 03 2020 15:29:30 GMT-0400 (Eastern Daylight Time)","Sat Oct 03 2020 15:48:33 GMT-0400 (Eastern Daylight Time)","Mozilla/5.0 (Windows NT 6.3; Win64; x64) AppleWebKit/537.36 (KHTML, like Gecko) Chrome/85.0.4183.121 Safari/537.36",106,"[0.9, 0.5, 0.1]","[0.8, 0.4, 0.2]","[u'blue', u'black', u'red']","[u'left', u'middle', u'right']","[0.8, 0.4, 0.2]","[u'high', u'medium', u'low']","red",51,"right","low","False","False",470,4450,NA
"A5KY3NHA1TEU1","Sat Oct 03 2020 15:29:30 GMT-0400 (Eastern Daylight Time)","Sat Oct 03 2020 15:48:33 GMT-0400 (Eastern Daylight Time)","Mozilla/5.0 (Windows NT 6.3; Win64; x64) AppleWebKit/537.36 (KHTML, like Gecko) Chrome/85.0.4183.121 Safari/537.36",107,"[0.9, 0.5, 0.1]","[0.8, 0.4, 0.2]","[u'blue', u'black', u'red']","[u'left', u'middle', u'right']","[0.8, 0.4, 0.2]","[u'high', u'medium', u'low']","blue",49,"left","high","True","False",283,4550,NA
"A5KY3NHA1TEU1","Sat Oct 03 2020 15:29:30 GMT-0400 (Eastern Daylight Time)","Sat Oct 03 2020 15:48:33 GMT-0400 (Eastern Daylight Time)","Mozilla/5.0 (Windows NT 6.3; Win64; x64) AppleWebKit/537.36 (KHTML, like Gecko) Chrome/85.0.4183.121 Safari/537.36",108,"[0.9, 0.5, 0.1]","[0.8, 0.4, 0.2]","[u'blue', u'black', u'red']","[u'left', u'middle', u'right']","[0.8, 0.4, 0.2]","[u'high', u'medium', u'low']","black",50,"middle","medium","False","False",509,4500,NA
"A5KY3NHA1TEU1","Sat Oct 03 2020 15:29:30 GMT-0400 (Eastern Daylight Time)","Sat Oct 03 2020 15:48:33 GMT-0400 (Eastern Daylight Time)","Mozilla/5.0 (Windows NT 6.3; Win64; x64) AppleWebKit/537.36 (KHTML, like Gecko) Chrome/85.0.4183.121 Safari/537.36",109,"[0.9, 0.5, 0.1]","[0.8, 0.4, 0.2]","[u'blue', u'black', u'red']","[u'left', u'middle', u'right']","[0.8, 0.4, 0.2]","[u'high', u'medium', u'low']","red",51,"right","low","True","False",207,4600,NA
"A5KY3NHA1TEU1","Sat Oct 03 2020 15:29:30 GMT-0400 (Eastern Daylight Time)","Sat Oct 03 2020 15:48:33 GMT-0400 (Eastern Daylight Time)","Mozilla/5.0 (Windows NT 6.3; Win64; x64) AppleWebKit/537.36 (KHTML, like Gecko) Chrome/85.0.4183.121 Safari/537.36",110,"[0.9, 0.5, 0.1]","[0.8, 0.4, 0.2]","[u'blue', u'black', u'red']","[u'left', u'middle', u'right']","[0.8, 0.4, 0.2]","[u'high', u'medium', u'low']","black",50,"middle","medium","True","False",10,4700,NA
"A5KY3NHA1TEU1","Sat Oct 03 2020 15:29:30 GMT-0400 (Eastern Daylight Time)","Sat Oct 03 2020 15:48:33 GMT-0400 (Eastern Daylight Time)","Mozilla/5.0 (Windows NT 6.3; Win64; x64) AppleWebKit/537.36 (KHTML, like Gecko) Chrome/85.0.4183.121 Safari/537.36",111,"[0.9, 0.5, 0.1]","[0.8, 0.4, 0.2]","[u'blue', u'black', u'red']","[u'left', u'middle', u'right']","[0.8, 0.4, 0.2]","[u'high', u'medium', u'low']","blue",49,"left","high","True","False",137,4800,NA
"A5KY3NHA1TEU1","Sat Oct 03 2020 15:29:30 GMT-0400 (Eastern Daylight Time)","Sat Oct 03 2020 15:48:33 GMT-0400 (Eastern Daylight Time)","Mozilla/5.0 (Windows NT 6.3; Win64; x64) AppleWebKit/537.36 (KHTML, like Gecko) Chrome/85.0.4183.121 Safari/537.36",112,"[0.9, 0.5, 0.1]","[0.8, 0.4, 0.2]","[u'blue', u'black', u'red']","[u'left', u'middle', u'right']","[0.8, 0.4, 0.2]","[u'high', u'medium', u'low']","black",50,"middle","medium","False","False",979,4750,NA
"A5KY3NHA1TEU1","Sat Oct 03 2020 15:29:30 GMT-0400 (Eastern Daylight Time)","Sat Oct 03 2020 15:48:33 GMT-0400 (Eastern Daylight Time)","Mozilla/5.0 (Windows NT 6.3; Win64; x64) AppleWebKit/537.36 (KHTML, like Gecko) Chrome/85.0.4183.121 Safari/537.36",113,"[0.9, 0.5, 0.1]","[0.8, 0.4, 0.2]","[u'blue', u'black', u'red']","[u'left', u'middle', u'right']","[0.8, 0.4, 0.2]","[u'high', u'medium', u'low']","red",51,"right","low","False","False",168,4700,NA
"A5KY3NHA1TEU1","Sat Oct 03 2020 15:29:30 GMT-0400 (Eastern Daylight Time)","Sat Oct 03 2020 15:48:33 GMT-0400 (Eastern Daylight Time)","Mozilla/5.0 (Windows NT 6.3; Win64; x64) AppleWebKit/537.36 (KHTML, like Gecko) Chrome/85.0.4183.121 Safari/537.36",114,"[0.9, 0.5, 0.1]","[0.8, 0.4, 0.2]","[u'blue', u'black', u'red']","[u'left', u'middle', u'right']","[0.8, 0.4, 0.2]","[u'high', u'medium', u'low']","blue",49,"left","high","True","False",17,4800,NA
"A5KY3NHA1TEU1","Sat Oct 03 2020 15:29:30 GMT-0400 (Eastern Daylight Time)","Sat Oct 03 2020 15:48:33 GMT-0400 (Eastern Daylight Time)","Mozilla/5.0 (Windows NT 6.3; Win64; x64) AppleWebKit/537.36 (KHTML, like Gecko) Chrome/85.0.4183.121 Safari/537.36",115,"[0.9, 0.5, 0.1]","[0.8, 0.4, 0.2]","[u'blue', u'black', u'red']","[u'left', u'middle', u'right']","[0.8, 0.4, 0.2]","[u'high', u'medium', u'low']","black",50,"middle","medium","False","False",251,4750,NA
"A5KY3NHA1TEU1","Sat Oct 03 2020 15:29:30 GMT-0400 (Eastern Daylight Time)","Sat Oct 03 2020 15:48:33 GMT-0400 (Eastern Daylight Time)","Mozilla/5.0 (Windows NT 6.3; Win64; x64) AppleWebKit/537.36 (KHTML, like Gecko) Chrome/85.0.4183.121 Safari/537.36",116,"[0.9, 0.5, 0.1]","[0.8, 0.4, 0.2]","[u'blue', u'black', u'red']","[u'left', u'middle', u'right']","[0.8, 0.4, 0.2]","[u'high', u'medium', u'low']","red",51,"right","low","True","False",216,4850,NA
"A5KY3NHA1TEU1","Sat Oct 03 2020 15:29:30 GMT-0400 (Eastern Daylight Time)","Sat Oct 03 2020 15:48:33 GMT-0400 (Eastern Daylight Time)","Mozilla/5.0 (Windows NT 6.3; Win64; x64) AppleWebKit/537.36 (KHTML, like Gecko) Chrome/85.0.4183.121 Safari/537.36",117,"[0.9, 0.5, 0.1]","[0.8, 0.4, 0.2]","[u'blue', u'black', u'red']","[u'left', u'middle', u'right']","[0.8, 0.4, 0.2]","[u'high', u'medium', u'low']","blue",49,"left","high","True","False",59,4950,NA
"A5KY3NHA1TEU1","Sat Oct 03 2020 15:29:30 GMT-0400 (Eastern Daylight Time)","Sat Oct 03 2020 15:48:33 GMT-0400 (Eastern Daylight Time)","Mozilla/5.0 (Windows NT 6.3; Win64; x64) AppleWebKit/537.36 (KHTML, like Gecko) Chrome/85.0.4183.121 Safari/537.36",118,"[0.9, 0.5, 0.1]","[0.8, 0.4, 0.2]","[u'blue', u'black', u'red']","[u'left', u'middle', u'right']","[0.8, 0.4, 0.2]","[u'high', u'medium', u'low']","black",50,"middle","medium","True","False",209,5050,NA
"A5KY3NHA1TEU1","Sat Oct 03 2020 15:29:30 GMT-0400 (Eastern Daylight Time)","Sat Oct 03 2020 15:48:33 GMT-0400 (Eastern Daylight Time)","Mozilla/5.0 (Windows NT 6.3; Win64; x64) AppleWebKit/537.36 (KHTML, like Gecko) Chrome/85.0.4183.121 Safari/537.36",119,"[0.9, 0.5, 0.1]","[0.8, 0.4, 0.2]","[u'blue', u'black', u'red']","[u'left', u'middle', u'right']","[0.8, 0.4, 0.2]","[u'high', u'medium', u'low']","red",51,"right","low","True","False",213,5150,NA
"A5KY3NHA1TEU1","Sat Oct 03 2020 15:29:30 GMT-0400 (Eastern Daylight Time)","Sat Oct 03 2020 15:48:33 GMT-0400 (Eastern Daylight Time)","Mozilla/5.0 (Windows NT 6.3; Win64; x64) AppleWebKit/537.36 (KHTML, like Gecko) Chrome/85.0.4183.121 Safari/537.36",120,"[0.9, 0.5, 0.1]","[0.8, 0.4, 0.2]","[u'blue', u'black', u'red']","[u'left', u'middle', u'right']","[0.8, 0.4, 0.2]","[u'high', u'medium', u'low']","blue",49,"left","high","False","False",153,5100,NA
"A5KY3NHA1TEU1","Sat Oct 03 2020 15:29:30 GMT-0400 (Eastern Daylight Time)","Sat Oct 03 2020 15:48:33 GMT-0400 (Eastern Daylight Time)","Mozilla/5.0 (Windows NT 6.3; Win64; x64) AppleWebKit/537.36 (KHTML, like Gecko) Chrome/85.0.4183.121 Safari/537.36",121,"[0.9, 0.5, 0.1]","[0.8, 0.4, 0.2]","[u'blue', u'black', u'red']","[u'left', u'middle', u'right']","[0.8, 0.4, 0.2]","[u'medium', u'high', u'low']","black",50,"middle","high","True","False",1567,5200,NA
"A5KY3NHA1TEU1","Sat Oct 03 2020 15:29:30 GMT-0400 (Eastern Daylight Time)","Sat Oct 03 2020 15:48:33 GMT-0400 (Eastern Daylight Time)","Mozilla/5.0 (Windows NT 6.3; Win64; x64) AppleWebKit/537.36 (KHTML, like Gecko) Chrome/85.0.4183.121 Safari/537.36",122,"[0.9, 0.5, 0.1]","[0.8, 0.4, 0.2]","[u'blue', u'black', u'red']","[u'left', u'middle', u'right']","[0.8, 0.4, 0.2]","[u'medium', u'high', u'low']","red",51,"right","low","False","False",737,5150,NA
"A5KY3NHA1TEU1","Sat Oct 03 2020 15:29:30 GMT-0400 (Eastern Daylight Time)","Sat Oct 03 2020 15:48:33 GMT-0400 (Eastern Daylight Time)","Mozilla/5.0 (Windows NT 6.3; Win64; x64) AppleWebKit/537.36 (KHTML, like Gecko) Chrome/85.0.4183.121 Safari/537.36",123,"[0.9, 0.5, 0.1]","[0.8, 0.4, 0.2]","[u'blue', u'black', u'red']","[u'left', u'middle', u'right']","[0.8, 0.4, 0.2]","[u'medium', u'high', u'low']","blue",49,"left","medium","True","False",400,5250,NA
"A5KY3NHA1TEU1","Sat Oct 03 2020 15:29:30 GMT-0400 (Eastern Daylight Time)","Sat Oct 03 2020 15:48:33 GMT-0400 (Eastern Daylight Time)","Mozilla/5.0 (Windows NT 6.3; Win64; x64) AppleWebKit/537.36 (KHTML, like Gecko) Chrome/85.0.4183.121 Safari/537.36",124,"[0.9, 0.5, 0.1]","[0.8, 0.4, 0.2]","[u'blue', u'black', u'red']","[u'left', u'middle', u'right']","[0.8, 0.4, 0.2]","[u'medium', u'high', u'low']","black",50,"middle","high","True","False",109,5350,NA
"A5KY3NHA1TEU1","Sat Oct 03 2020 15:29:30 GMT-0400 (Eastern Daylight Time)","Sat Oct 03 2020 15:48:33 GMT-0400 (Eastern Daylight Time)","Mozilla/5.0 (Windows NT 6.3; Win64; x64) AppleWebKit/537.36 (KHTML, like Gecko) Chrome/85.0.4183.121 Safari/537.36",125,"[0.9, 0.5, 0.1]","[0.8, 0.4, 0.2]","[u'blue', u'black', u'red']","[u'left', u'middle', u'right']","[0.8, 0.4, 0.2]","[u'medium', u'high', u'low']","red",51,"right","low","False","False",346,5300,NA
"A5KY3NHA1TEU1","Sat Oct 03 2020 15:29:30 GMT-0400 (Eastern Daylight Time)","Sat Oct 03 2020 15:48:33 GMT-0400 (Eastern Daylight Time)","Mozilla/5.0 (Windows NT 6.3; Win64; x64) AppleWebKit/537.36 (KHTML, like Gecko) Chrome/85.0.4183.121 Safari/537.36",126,"[0.9, 0.5, 0.1]","[0.8, 0.4, 0.2]","[u'blue', u'black', u'red']","[u'left', u'middle', u'right']","[0.8, 0.4, 0.2]","[u'medium', u'high', u'low']","black",50,"middle","high","True","False",968,5400,NA
"A5KY3NHA1TEU1","Sat Oct 03 2020 15:29:30 GMT-0400 (Eastern Daylight Time)","Sat Oct 03 2020 15:48:33 GMT-0400 (Eastern Daylight Time)","Mozilla/5.0 (Windows NT 6.3; Win64; x64) AppleWebKit/537.36 (KHTML, like Gecko) Chrome/85.0.4183.121 Safari/537.36",127,"[0.9, 0.5, 0.1]","[0.8, 0.4, 0.2]","[u'blue', u'black', u'red']","[u'left', u'middle', u'right']","[0.8, 0.4, 0.2]","[u'medium', u'high', u'low']","blue",49,"left","medium","False","False",1048,5350,NA
"A5KY3NHA1TEU1","Sat Oct 03 2020 15:29:30 GMT-0400 (Eastern Daylight Time)","Sat Oct 03 2020 15:48:33 GMT-0400 (Eastern Daylight Time)","Mozilla/5.0 (Windows NT 6.3; Win64; x64) AppleWebKit/537.36 (KHTML, like Gecko) Chrome/85.0.4183.121 Safari/537.36",128,"[0.9, 0.5, 0.1]","[0.8, 0.4, 0.2]","[u'blue', u'black', u'red']","[u'left', u'middle', u'right']","[0.8, 0.4, 0.2]","[u'medium', u'high', u'low']","black",50,"middle","high","True","False",274,5450,NA
"A5KY3NHA1TEU1","Sat Oct 03 2020 15:29:30 GMT-0400 (Eastern Daylight Time)","Sat Oct 03 2020 15:48:33 GMT-0400 (Eastern Daylight Time)","Mozilla/5.0 (Windows NT 6.3; Win64; x64) AppleWebKit/537.36 (KHTML, like Gecko) Chrome/85.0.4183.121 Safari/537.36",129,"[0.9, 0.5, 0.1]","[0.8, 0.4, 0.2]","[u'blue', u'black', u'red']","[u'left', u'middle', u'right']","[0.8, 0.4, 0.2]","[u'medium', u'high', u'low']","red",51,"right","low","False","False",904,5400,NA
"A5KY3NHA1TEU1","Sat Oct 03 2020 15:29:30 GMT-0400 (Eastern Daylight Time)","Sat Oct 03 2020 15:48:33 GMT-0400 (Eastern Daylight Time)","Mozilla/5.0 (Windows NT 6.3; Win64; x64) AppleWebKit/537.36 (KHTML, like Gecko) Chrome/85.0.4183.121 Safari/537.36",130,"[0.9, 0.5, 0.1]","[0.8, 0.4, 0.2]","[u'blue', u'black', u'red']","[u'left', u'middle', u'right']","[0.8, 0.4, 0.2]","[u'medium', u'high', u'low']","blue",49,"left","medium","False","False",449,5350,NA
"A5KY3NHA1TEU1","Sat Oct 03 2020 15:29:30 GMT-0400 (Eastern Daylight Time)","Sat Oct 03 2020 15:48:33 GMT-0400 (Eastern Daylight Time)","Mozilla/5.0 (Windows NT 6.3; Win64; x64) AppleWebKit/537.36 (KHTML, like Gecko) Chrome/85.0.4183.121 Safari/537.36",131,"[0.9, 0.5, 0.1]","[0.8, 0.4, 0.2]","[u'blue', u'black', u'red']","[u'left', u'middle', u'right']","[0.8, 0.4, 0.2]","[u'medium', u'high', u'low']","black",50,"middle","high","True","False",127,5450,NA
"A5KY3NHA1TEU1","Sat Oct 03 2020 15:29:30 GMT-0400 (Eastern Daylight Time)","Sat Oct 03 2020 15:48:33 GMT-0400 (Eastern Daylight Time)","Mozilla/5.0 (Windows NT 6.3; Win64; x64) AppleWebKit/537.36 (KHTML, like Gecko) Chrome/85.0.4183.121 Safari/537.36",132,"[0.9, 0.5, 0.1]","[0.8, 0.4, 0.2]","[u'blue', u'black', u'red']","[u'left', u'middle', u'right']","[0.8, 0.4, 0.2]","[u'medium', u'high', u'low']","red",51,"right","low","False","False",117,5400,NA
"A5KY3NHA1TEU1","Sat Oct 03 2020 15:29:30 GMT-0400 (Eastern Daylight Time)","Sat Oct 03 2020 15:48:33 GMT-0400 (Eastern Daylight Time)","Mozilla/5.0 (Windows NT 6.3; Win64; x64) AppleWebKit/537.36 (KHTML, like Gecko) Chrome/85.0.4183.121 Safari/537.36",133,"[0.9, 0.5, 0.1]","[0.8, 0.4, 0.2]","[u'blue', u'black', u'red']","[u'left', u'middle', u'right']","[0.8, 0.4, 0.2]","[u'medium', u'high', u'low']","black",50,"middle","high","True","False",931,5500,NA
"A5KY3NHA1TEU1","Sat Oct 03 2020 15:29:30 GMT-0400 (Eastern Daylight Time)","Sat Oct 03 2020 15:48:33 GMT-0400 (Eastern Daylight Time)","Mozilla/5.0 (Windows NT 6.3; Win64; x64) AppleWebKit/537.36 (KHTML, like Gecko) Chrome/85.0.4183.121 Safari/537.36",134,"[0.9, 0.5, 0.1]","[0.8, 0.4, 0.2]","[u'blue', u'black', u'red']","[u'left', u'middle', u'right']","[0.8, 0.4, 0.2]","[u'medium', u'high', u'low']","blue",49,"left","medium","True","False",55,5600,NA
"A5KY3NHA1TEU1","Sat Oct 03 2020 15:29:30 GMT-0400 (Eastern Daylight Time)","Sat Oct 03 2020 15:48:33 GMT-0400 (Eastern Daylight Time)","Mozilla/5.0 (Windows NT 6.3; Win64; x64) AppleWebKit/537.36 (KHTML, like Gecko) Chrome/85.0.4183.121 Safari/537.36",135,"[0.9, 0.5, 0.1]","[0.8, 0.4, 0.2]","[u'blue', u'black', u'red']","[u'left', u'middle', u'right']","[0.8, 0.4, 0.2]","[u'medium', u'high', u'low']","black",50,"middle","high","True","False",152,5700,NA
"A5KY3NHA1TEU1","Sat Oct 03 2020 15:29:30 GMT-0400 (Eastern Daylight Time)","Sat Oct 03 2020 15:48:33 GMT-0400 (Eastern Daylight Time)","Mozilla/5.0 (Windows NT 6.3; Win64; x64) AppleWebKit/537.36 (KHTML, like Gecko) Chrome/85.0.4183.121 Safari/537.36",136,"[0.9, 0.5, 0.1]","[0.8, 0.4, 0.2]","[u'blue', u'black', u'red']","[u'left', u'middle', u'right']","[0.8, 0.4, 0.2]","[u'medium', u'high', u'low']","red",51,"right","low","False","False",193,5650,NA
"A5KY3NHA1TEU1","Sat Oct 03 2020 15:29:30 GMT-0400 (Eastern Daylight Time)","Sat Oct 03 2020 15:48:33 GMT-0400 (Eastern Daylight Time)","Mozilla/5.0 (Windows NT 6.3; Win64; x64) AppleWebKit/537.36 (KHTML, like Gecko) Chrome/85.0.4183.121 Safari/537.36",137,"[0.9, 0.5, 0.1]","[0.8, 0.4, 0.2]","[u'blue', u'black', u'red']","[u'left', u'middle', u'right']","[0.8, 0.4, 0.2]","[u'medium', u'high', u'low']","black",50,"middle","high","True","False",870,5750,NA
"A5KY3NHA1TEU1","Sat Oct 03 2020 15:29:30 GMT-0400 (Eastern Daylight Time)","Sat Oct 03 2020 15:48:33 GMT-0400 (Eastern Daylight Time)","Mozilla/5.0 (Windows NT 6.3; Win64; x64) AppleWebKit/537.36 (KHTML, like Gecko) Chrome/85.0.4183.121 Safari/537.36",138,"[0.9, 0.5, 0.1]","[0.8, 0.4, 0.2]","[u'blue', u'black', u'red']","[u'left', u'middle', u'right']","[0.8, 0.4, 0.2]","[u'medium', u'high', u'low']","blue",49,"left","medium","True","False",239,5850,NA
"A5KY3NHA1TEU1","Sat Oct 03 2020 15:29:30 GMT-0400 (Eastern Daylight Time)","Sat Oct 03 2020 15:48:33 GMT-0400 (Eastern Daylight Time)","Mozilla/5.0 (Windows NT 6.3; Win64; x64) AppleWebKit/537.36 (KHTML, like Gecko) Chrome/85.0.4183.121 Safari/537.36",139,"[0.9, 0.5, 0.1]","[0.8, 0.4, 0.2]","[u'blue', u'black', u'red']","[u'left', u'middle', u'right']","[0.8, 0.4, 0.2]","[u'medium', u'high', u'low']","black",50,"middle","high","True","False",163,5950,NA
"A5KY3NHA1TEU1","Sat Oct 03 2020 15:29:30 GMT-0400 (Eastern Daylight Time)","Sat Oct 03 2020 15:48:33 GMT-0400 (Eastern Daylight Time)","Mozilla/5.0 (Windows NT 6.3; Win64; x64) AppleWebKit/537.36 (KHTML, like Gecko) Chrome/85.0.4183.121 Safari/537.36",140,"[0.9, 0.5, 0.1]","[0.8, 0.4, 0.2]","[u'blue', u'black', u'red']","[u'left', u'middle', u'right']","[0.8, 0.4, 0.2]","[u'medium', u'high', u'low']","red",51,"right","low","False","False",235,5900,NA
"A5KY3NHA1TEU1","Sat Oct 03 2020 15:29:30 GMT-0400 (Eastern Daylight Time)","Sat Oct 03 2020 15:48:33 GMT-0400 (Eastern Daylight Time)","Mozilla/5.0 (Windows NT 6.3; Win64; x64) AppleWebKit/537.36 (KHTML, like Gecko) Chrome/85.0.4183.121 Safari/537.36",141,"[0.9, 0.5, 0.1]","[0.8, 0.4, 0.2]","[u'blue', u'black', u'red']","[u'left', u'middle', u'right']","[0.8, 0.4, 0.2]","[u'medium', u'high', u'low']","black",50,"middle","high","True","False",764,6000,NA
"A5KY3NHA1TEU1","Sat Oct 03 2020 15:29:30 GMT-0400 (Eastern Daylight Time)","Sat Oct 03 2020 15:48:33 GMT-0400 (Eastern Daylight Time)","Mozilla/5.0 (Windows NT 6.3; Win64; x64) AppleWebKit/537.36 (KHTML, like Gecko) Chrome/85.0.4183.121 Safari/537.36",142,"[0.9, 0.5, 0.1]","[0.8, 0.4, 0.2]","[u'blue', u'black', u'red']","[u'left', u'middle', u'right']","[0.8, 0.4, 0.2]","[u'medium', u'high', u'low']","red",51,"right","low","False","False",421,5950,NA
"A5KY3NHA1TEU1","Sat Oct 03 2020 15:29:30 GMT-0400 (Eastern Daylight Time)","Sat Oct 03 2020 15:48:33 GMT-0400 (Eastern Daylight Time)","Mozilla/5.0 (Windows NT 6.3; Win64; x64) AppleWebKit/537.36 (KHTML, like Gecko) Chrome/85.0.4183.121 Safari/537.36",143,"[0.9, 0.5, 0.1]","[0.8, 0.4, 0.2]","[u'blue', u'black', u'red']","[u'left', u'middle', u'right']","[0.8, 0.4, 0.2]","[u'medium', u'high', u'low']","blue",49,"left","medium","True","False",2079,6050,NA
"A5KY3NHA1TEU1","Sat Oct 03 2020 15:29:30 GMT-0400 (Eastern Daylight Time)","Sat Oct 03 2020 15:48:33 GMT-0400 (Eastern Daylight Time)","Mozilla/5.0 (Windows NT 6.3; Win64; x64) AppleWebKit/537.36 (KHTML, like Gecko) Chrome/85.0.4183.121 Safari/537.36",144,"[0.9, 0.5, 0.1]","[0.8, 0.4, 0.2]","[u'blue', u'black', u'red']","[u'left', u'middle', u'right']","[0.8, 0.4, 0.2]","[u'medium', u'high', u'low']","black",50,"middle","high","True","False",718,6150,NA
"A5KY3NHA1TEU1","Sat Oct 03 2020 15:29:30 GMT-0400 (Eastern Daylight Time)","Sat Oct 03 2020 15:48:33 GMT-0400 (Eastern Daylight Time)","Mozilla/5.0 (Windows NT 6.3; Win64; x64) AppleWebKit/537.36 (KHTML, like Gecko) Chrome/85.0.4183.121 Safari/537.36",145,"[0.9, 0.5, 0.1]","[0.8, 0.4, 0.2]","[u'blue', u'black', u'red']","[u'left', u'middle', u'right']","[0.8, 0.4, 0.2]","[u'medium', u'high', u'low']","blue",49,"left","medium","False","False",736,6100,NA
"A5KY3NHA1TEU1","Sat Oct 03 2020 15:29:30 GMT-0400 (Eastern Daylight Time)","Sat Oct 03 2020 15:48:33 GMT-0400 (Eastern Daylight Time)","Mozilla/5.0 (Windows NT 6.3; Win64; x64) AppleWebKit/537.36 (KHTML, like Gecko) Chrome/85.0.4183.121 Safari/537.36",146,"[0.9, 0.5, 0.1]","[0.8, 0.4, 0.2]","[u'blue', u'black', u'red']","[u'left', u'middle', u'right']","[0.8, 0.4, 0.2]","[u'medium', u'high', u'low']","red",51,"right","low","False","False",337,6050,NA
"A5KY3NHA1TEU1","Sat Oct 03 2020 15:29:30 GMT-0400 (Eastern Daylight Time)","Sat Oct 03 2020 15:48:33 GMT-0400 (Eastern Daylight Time)","Mozilla/5.0 (Windows NT 6.3; Win64; x64) AppleWebKit/537.36 (KHTML, like Gecko) Chrome/85.0.4183.121 Safari/537.36",147,"[0.9, 0.5, 0.1]","[0.8, 0.4, 0.2]","[u'blue', u'black', u'red']","[u'left', u'middle', u'right']","[0.8, 0.4, 0.2]","[u'medium', u'high', u'low']","black",50,"middle","high","True","False",760,6150,NA
"A5KY3NHA1TEU1","Sat Oct 03 2020 15:29:30 GMT-0400 (Eastern Daylight Time)","Sat Oct 03 2020 15:48:33 GMT-0400 (Eastern Daylight Time)","Mozilla/5.0 (Windows NT 6.3; Win64; x64) AppleWebKit/537.36 (KHTML, like Gecko) Chrome/85.0.4183.121 Safari/537.36",148,"[0.9, 0.5, 0.1]","[0.8, 0.4, 0.2]","[u'blue', u'black', u'red']","[u'left', u'middle', u'right']","[0.8, 0.4, 0.2]","[u'medium', u'high', u'low']","black",50,"middle","high","True","False",107,6250,NA
"A5KY3NHA1TEU1","Sat Oct 03 2020 15:29:30 GMT-0400 (Eastern Daylight Time)","Sat Oct 03 2020 15:48:33 GMT-0400 (Eastern Daylight Time)","Mozilla/5.0 (Windows NT 6.3; Win64; x64) AppleWebKit/537.36 (KHTML, like Gecko) Chrome/85.0.4183.121 Safari/537.36",149,"[0.9, 0.5, 0.1]","[0.8, 0.4, 0.2]","[u'blue', u'black', u'red']","[u'left', u'middle', u'right']","[0.8, 0.4, 0.2]","[u'medium', u'high', u'low']","black",50,"middle","high","True","False",389,6350,NA
"A5KY3NHA1TEU1","Sat Oct 03 2020 15:29:30 GMT-0400 (Eastern Daylight Time)","Sat Oct 03 2020 15:48:33 GMT-0400 (Eastern Daylight Time)","Mozilla/5.0 (Windows NT 6.3; Win64; x64) AppleWebKit/537.36 (KHTML, like Gecko) Chrome/85.0.4183.121 Safari/537.36",150,"[0.9, 0.5, 0.1]","[0.8, 0.4, 0.2]","[u'blue', u'black', u'red']","[u'left', u'middle', u'right']","[0.8, 0.4, 0.2]","[u'medium', u'high', u'low']","red",51,"right","low","True","False",610,6450,NA
"A5KY3NHA1TEU1","Sat Oct 03 2020 15:29:30 GMT-0400 (Eastern Daylight Time)","Sat Oct 03 2020 15:48:33 GMT-0400 (Eastern Daylight Time)","Mozilla/5.0 (Windows NT 6.3; Win64; x64) AppleWebKit/537.36 (KHTML, like Gecko) Chrome/85.0.4183.121 Safari/537.36",151,"[0.9, 0.5, 0.1]","[0.8, 0.4, 0.2]","[u'blue', u'black', u'red']","[u'left', u'middle', u'right']","[0.8, 0.4, 0.2]","[u'medium', u'high', u'low']","black",50,"middle","high","False","False",488,6400,NA
"A5KY3NHA1TEU1","Sat Oct 03 2020 15:29:30 GMT-0400 (Eastern Daylight Time)","Sat Oct 03 2020 15:48:33 GMT-0400 (Eastern Daylight Time)","Mozilla/5.0 (Windows NT 6.3; Win64; x64) AppleWebKit/537.36 (KHTML, like Gecko) Chrome/85.0.4183.121 Safari/537.36",152,"[0.9, 0.5, 0.1]","[0.8, 0.4, 0.2]","[u'blue', u'black', u'red']","[u'left', u'middle', u'right']","[0.8, 0.4, 0.2]","[u'medium', u'high', u'low']","blue",49,"left","medium","False","False",351,6350,NA
"A5KY3NHA1TEU1","Sat Oct 03 2020 15:29:30 GMT-0400 (Eastern Daylight Time)","Sat Oct 03 2020 15:48:33 GMT-0400 (Eastern Daylight Time)","Mozilla/5.0 (Windows NT 6.3; Win64; x64) AppleWebKit/537.36 (KHTML, like Gecko) Chrome/85.0.4183.121 Safari/537.36",153,"[0.9, 0.5, 0.1]","[0.8, 0.4, 0.2]","[u'blue', u'black', u'red']","[u'left', u'middle', u'right']","[0.8, 0.4, 0.2]","[u'medium', u'high', u'low']","red",51,"right","low","False","False",972,6300,NA
"A5KY3NHA1TEU1","Sat Oct 03 2020 15:29:30 GMT-0400 (Eastern Daylight Time)","Sat Oct 03 2020 15:48:33 GMT-0400 (Eastern Daylight Time)","Mozilla/5.0 (Windows NT 6.3; Win64; x64) AppleWebKit/537.36 (KHTML, like Gecko) Chrome/85.0.4183.121 Safari/537.36",154,"[0.9, 0.5, 0.1]","[0.8, 0.4, 0.2]","[u'blue', u'black', u'red']","[u'left', u'middle', u'right']","[0.8, 0.4, 0.2]","[u'medium', u'high', u'low']","black",50,"middle","high","True","False",430,6400,NA
"A5KY3NHA1TEU1","Sat Oct 03 2020 15:29:30 GMT-0400 (Eastern Daylight Time)","Sat Oct 03 2020 15:48:33 GMT-0400 (Eastern Daylight Time)","Mozilla/5.0 (Windows NT 6.3; Win64; x64) AppleWebKit/537.36 (KHTML, like Gecko) Chrome/85.0.4183.121 Safari/537.36",155,"[0.9, 0.5, 0.1]","[0.8, 0.4, 0.2]","[u'blue', u'black', u'red']","[u'left', u'middle', u'right']","[0.8, 0.4, 0.2]","[u'medium', u'high', u'low']","black",50,"middle","high","True","False",3450,6500,NA
"A5KY3NHA1TEU1","Sat Oct 03 2020 15:29:30 GMT-0400 (Eastern Daylight Time)","Sat Oct 03 2020 15:48:33 GMT-0400 (Eastern Daylight Time)","Mozilla/5.0 (Windows NT 6.3; Win64; x64) AppleWebKit/537.36 (KHTML, like Gecko) Chrome/85.0.4183.121 Safari/537.36",156,"[0.9, 0.5, 0.1]","[0.8, 0.4, 0.2]","[u'blue', u'black', u'red']","[u'left', u'middle', u'right']","[0.8, 0.4, 0.2]","[u'medium', u'high', u'low']","blue",49,"left","medium","False","False",7178,6450,NA
"A5KY3NHA1TEU1","Sat Oct 03 2020 15:29:30 GMT-0400 (Eastern Daylight Time)","Sat Oct 03 2020 15:48:33 GMT-0400 (Eastern Daylight Time)","Mozilla/5.0 (Windows NT 6.3; Win64; x64) AppleWebKit/537.36 (KHTML, like Gecko) Chrome/85.0.4183.121 Safari/537.36",157,"[0.9, 0.5, 0.1]","[0.8, 0.4, 0.2]","[u'blue', u'black', u'red']","[u'left', u'middle', u'right']","[0.8, 0.4, 0.2]","[u'medium', u'high', u'low']","black",50,"middle","high","False","False",21639,6400,NA
"A5KY3NHA1TEU1","Sat Oct 03 2020 15:29:30 GMT-0400 (Eastern Daylight Time)","Sat Oct 03 2020 15:48:33 GMT-0400 (Eastern Daylight Time)","Mozilla/5.0 (Windows NT 6.3; Win64; x64) AppleWebKit/537.36 (KHTML, like Gecko) Chrome/85.0.4183.121 Safari/537.36",158,"[0.9, 0.5, 0.1]","[0.8, 0.4, 0.2]","[u'blue', u'black', u'red']","[u'left', u'middle', u'right']","[0.8, 0.4, 0.2]","[u'medium', u'high', u'low']","red",51,"right","low","True","False",1900,6500,NA
"A5KY3NHA1TEU1","Sat Oct 03 2020 15:29:30 GMT-0400 (Eastern Daylight Time)","Sat Oct 03 2020 15:48:33 GMT-0400 (Eastern Daylight Time)","Mozilla/5.0 (Windows NT 6.3; Win64; x64) AppleWebKit/537.36 (KHTML, like Gecko) Chrome/85.0.4183.121 Safari/537.36",159,"[0.9, 0.5, 0.1]","[0.8, 0.4, 0.2]","[u'blue', u'black', u'red']","[u'left', u'middle', u'right']","[0.8, 0.4, 0.2]","[u'medium', u'high', u'low']","blue",49,"left","medium","False","False",416,6450,NA
"A5KY3NHA1TEU1","Sat Oct 03 2020 15:29:30 GMT-0400 (Eastern Daylight Time)","Sat Oct 03 2020 15:48:33 GMT-0400 (Eastern Daylight Time)","Mozilla/5.0 (Windows NT 6.3; Win64; x64) AppleWebKit/537.36 (KHTML, like Gecko) Chrome/85.0.4183.121 Safari/537.36",160,"[0.9, 0.5, 0.1]","[0.8, 0.4, 0.2]","[u'blue', u'black', u'red']","[u'left', u'middle', u'right']","[0.8, 0.4, 0.2]","[u'medium', u'high', u'low']","black",50,"middle","high","False","False",730,6400,NA
