"src_subject_id","start_time","end_time","browser","index","first_half_probabilities","second_half_probabilities","deck_color","deck_position","deck_probabilities","deck_contingencies","response_color","key_press","response_position","response_probability","reward_type","trial_type","rt","reward_tally","exclusion_reason"
"A2OA3ZDP0Y3Q9U","Sat Oct 03 2020 16:26:59 GMT-0500 (Central Daylight Time)","Sat Oct 03 2020 16:36:20 GMT-0500 (Central Daylight Time)","Mozilla/5.0 (X11; Linux x86_64) AppleWebKit/537.36 (KHTML, like Gecko) Chrome/85.0.4183.121 Safari/537.36",1,"[0.9, 0.5, 0.1]","[0.8, 0.4, 0.2]","[u'blue', u'black', u'red']","[u'left', u'middle', u'right']","[0.9, 0.5, 0.1]","[u'low', u'high', u'medium']","black",50,"middle","high","True","False",1258,100,NA
"A2OA3ZDP0Y3Q9U","Sat Oct 03 2020 16:26:59 GMT-0500 (Central Daylight Time)","Sat Oct 03 2020 16:36:20 GMT-0500 (Central Daylight Time)","Mozilla/5.0 (X11; Linux x86_64) AppleWebKit/537.36 (KHTML, like Gecko) Chrome/85.0.4183.121 Safari/537.36",2,"[0.9, 0.5, 0.1]","[0.8, 0.4, 0.2]","[u'blue', u'black', u'red']","[u'left', u'middle', u'right']","[0.9, 0.5, 0.1]","[u'low', u'high', u'medium']","black",50,"middle","high","True","False",619,200,NA
"A2OA3ZDP0Y3Q9U","Sat Oct 03 2020 16:26:59 GMT-0500 (Central Daylight Time)","Sat Oct 03 2020 16:36:20 GMT-0500 (Central Daylight Time)","Mozilla/5.0 (X11; Linux x86_64) AppleWebKit/537.36 (KHTML, like Gecko) Chrome/85.0.4183.121 Safari/537.36",3,"[0.9, 0.5, 0.1]","[0.8, 0.4, 0.2]","[u'blue', u'black', u'red']","[u'left', u'middle', u'right']","[0.9, 0.5, 0.1]","[u'low', u'high', u'medium']","black",50,"middle","high","True","False",603,300,NA
"A2OA3ZDP0Y3Q9U","Sat Oct 03 2020 16:26:59 GMT-0500 (Central Daylight Time)","Sat Oct 03 2020 16:36:20 GMT-0500 (Central Daylight Time)","Mozilla/5.0 (X11; Linux x86_64) AppleWebKit/537.36 (KHTML, like Gecko) Chrome/85.0.4183.121 Safari/537.36",4,"[0.9, 0.5, 0.1]","[0.8, 0.4, 0.2]","[u'blue', u'black', u'red']","[u'left', u'middle', u'right']","[0.9, 0.5, 0.1]","[u'low', u'high', u'medium']","black",50,"middle","high","False","False",963,250,NA
"A2OA3ZDP0Y3Q9U","Sat Oct 03 2020 16:26:59 GMT-0500 (Central Daylight Time)","Sat Oct 03 2020 16:36:20 GMT-0500 (Central Daylight Time)","Mozilla/5.0 (X11; Linux x86_64) AppleWebKit/537.36 (KHTML, like Gecko) Chrome/85.0.4183.121 Safari/537.36",5,"[0.9, 0.5, 0.1]","[0.8, 0.4, 0.2]","[u'blue', u'black', u'red']","[u'left', u'middle', u'right']","[0.9, 0.5, 0.1]","[u'low', u'high', u'medium']","black",50,"middle","high","True","False",972,350,NA
"A2OA3ZDP0Y3Q9U","Sat Oct 03 2020 16:26:59 GMT-0500 (Central Daylight Time)","Sat Oct 03 2020 16:36:20 GMT-0500 (Central Daylight Time)","Mozilla/5.0 (X11; Linux x86_64) AppleWebKit/537.36 (KHTML, like Gecko) Chrome/85.0.4183.121 Safari/537.36",6,"[0.9, 0.5, 0.1]","[0.8, 0.4, 0.2]","[u'blue', u'black', u'red']","[u'left', u'middle', u'right']","[0.9, 0.5, 0.1]","[u'low', u'high', u'medium']","black",50,"middle","high","True","False",610,450,NA
"A2OA3ZDP0Y3Q9U","Sat Oct 03 2020 16:26:59 GMT-0500 (Central Daylight Time)","Sat Oct 03 2020 16:36:20 GMT-0500 (Central Daylight Time)","Mozilla/5.0 (X11; Linux x86_64) AppleWebKit/537.36 (KHTML, like Gecko) Chrome/85.0.4183.121 Safari/537.36",7,"[0.9, 0.5, 0.1]","[0.8, 0.4, 0.2]","[u'blue', u'black', u'red']","[u'left', u'middle', u'right']","[0.9, 0.5, 0.1]","[u'low', u'high', u'medium']","black",50,"middle","high","True","False",684,550,NA
"A2OA3ZDP0Y3Q9U","Sat Oct 03 2020 16:26:59 GMT-0500 (Central Daylight Time)","Sat Oct 03 2020 16:36:20 GMT-0500 (Central Daylight Time)","Mozilla/5.0 (X11; Linux x86_64) AppleWebKit/537.36 (KHTML, like Gecko) Chrome/85.0.4183.121 Safari/537.36",8,"[0.9, 0.5, 0.1]","[0.8, 0.4, 0.2]","[u'blue', u'black', u'red']","[u'left', u'middle', u'right']","[0.9, 0.5, 0.1]","[u'low', u'high', u'medium']","black",50,"middle","high","True","False",635,650,NA
"A2OA3ZDP0Y3Q9U","Sat Oct 03 2020 16:26:59 GMT-0500 (Central Daylight Time)","Sat Oct 03 2020 16:36:20 GMT-0500 (Central Daylight Time)","Mozilla/5.0 (X11; Linux x86_64) AppleWebKit/537.36 (KHTML, like Gecko) Chrome/85.0.4183.121 Safari/537.36",9,"[0.9, 0.5, 0.1]","[0.8, 0.4, 0.2]","[u'blue', u'black', u'red']","[u'left', u'middle', u'right']","[0.9, 0.5, 0.1]","[u'low', u'high', u'medium']","black",50,"middle","high","True","True",515,750,NA
"A2OA3ZDP0Y3Q9U","Sat Oct 03 2020 16:26:59 GMT-0500 (Central Daylight Time)","Sat Oct 03 2020 16:36:20 GMT-0500 (Central Daylight Time)","Mozilla/5.0 (X11; Linux x86_64) AppleWebKit/537.36 (KHTML, like Gecko) Chrome/85.0.4183.121 Safari/537.36",10,"[0.9, 0.5, 0.1]","[0.8, 0.4, 0.2]","[u'blue', u'black', u'red']","[u'left', u'middle', u'right']","[0.9, 0.5, 0.1]","[u'high', u'medium', u'low']","black",50,"middle","medium","True","False",428,850,NA
"A2OA3ZDP0Y3Q9U","Sat Oct 03 2020 16:26:59 GMT-0500 (Central Daylight Time)","Sat Oct 03 2020 16:36:20 GMT-0500 (Central Daylight Time)","Mozilla/5.0 (X11; Linux x86_64) AppleWebKit/537.36 (KHTML, like Gecko) Chrome/85.0.4183.121 Safari/537.36",11,"[0.9, 0.5, 0.1]","[0.8, 0.4, 0.2]","[u'blue', u'black', u'red']","[u'left', u'middle', u'right']","[0.9, 0.5, 0.1]","[u'high', u'medium', u'low']","black",50,"middle","medium","False","False",450,800,NA
"A2OA3ZDP0Y3Q9U","Sat Oct 03 2020 16:26:59 GMT-0500 (Central Daylight Time)","Sat Oct 03 2020 16:36:20 GMT-0500 (Central Daylight Time)","Mozilla/5.0 (X11; Linux x86_64) AppleWebKit/537.36 (KHTML, like Gecko) Chrome/85.0.4183.121 Safari/537.36",12,"[0.9, 0.5, 0.1]","[0.8, 0.4, 0.2]","[u'blue', u'black', u'red']","[u'left', u'middle', u'right']","[0.9, 0.5, 0.1]","[u'high', u'medium', u'low']","black",50,"middle","medium","False","False",364,750,NA
"A2OA3ZDP0Y3Q9U","Sat Oct 03 2020 16:26:59 GMT-0500 (Central Daylight Time)","Sat Oct 03 2020 16:36:20 GMT-0500 (Central Daylight Time)","Mozilla/5.0 (X11; Linux x86_64) AppleWebKit/537.36 (KHTML, like Gecko) Chrome/85.0.4183.121 Safari/537.36",13,"[0.9, 0.5, 0.1]","[0.8, 0.4, 0.2]","[u'blue', u'black', u'red']","[u'left', u'middle', u'right']","[0.9, 0.5, 0.1]","[u'high', u'medium', u'low']","black",50,"middle","medium","False","False",325,700,NA
"A2OA3ZDP0Y3Q9U","Sat Oct 03 2020 16:26:59 GMT-0500 (Central Daylight Time)","Sat Oct 03 2020 16:36:20 GMT-0500 (Central Daylight Time)","Mozilla/5.0 (X11; Linux x86_64) AppleWebKit/537.36 (KHTML, like Gecko) Chrome/85.0.4183.121 Safari/537.36",14,"[0.9, 0.5, 0.1]","[0.8, 0.4, 0.2]","[u'blue', u'black', u'red']","[u'left', u'middle', u'right']","[0.9, 0.5, 0.1]","[u'high', u'medium', u'low']","blue",49,"left","high","True","False",490,800,NA
"A2OA3ZDP0Y3Q9U","Sat Oct 03 2020 16:26:59 GMT-0500 (Central Daylight Time)","Sat Oct 03 2020 16:36:20 GMT-0500 (Central Daylight Time)","Mozilla/5.0 (X11; Linux x86_64) AppleWebKit/537.36 (KHTML, like Gecko) Chrome/85.0.4183.121 Safari/537.36",15,"[0.9, 0.5, 0.1]","[0.8, 0.4, 0.2]","[u'blue', u'black', u'red']","[u'left', u'middle', u'right']","[0.9, 0.5, 0.1]","[u'high', u'medium', u'low']","blue",49,"left","high","True","False",363,900,NA
"A2OA3ZDP0Y3Q9U","Sat Oct 03 2020 16:26:59 GMT-0500 (Central Daylight Time)","Sat Oct 03 2020 16:36:20 GMT-0500 (Central Daylight Time)","Mozilla/5.0 (X11; Linux x86_64) AppleWebKit/537.36 (KHTML, like Gecko) Chrome/85.0.4183.121 Safari/537.36",16,"[0.9, 0.5, 0.1]","[0.8, 0.4, 0.2]","[u'blue', u'black', u'red']","[u'left', u'middle', u'right']","[0.9, 0.5, 0.1]","[u'high', u'medium', u'low']","blue",49,"left","high","True","False",452,1000,NA
"A2OA3ZDP0Y3Q9U","Sat Oct 03 2020 16:26:59 GMT-0500 (Central Daylight Time)","Sat Oct 03 2020 16:36:20 GMT-0500 (Central Daylight Time)","Mozilla/5.0 (X11; Linux x86_64) AppleWebKit/537.36 (KHTML, like Gecko) Chrome/85.0.4183.121 Safari/537.36",17,"[0.9, 0.5, 0.1]","[0.8, 0.4, 0.2]","[u'blue', u'black', u'red']","[u'left', u'middle', u'right']","[0.9, 0.5, 0.1]","[u'high', u'medium', u'low']","blue",49,"left","high","False","False",419,950,NA
"A2OA3ZDP0Y3Q9U","Sat Oct 03 2020 16:26:59 GMT-0500 (Central Daylight Time)","Sat Oct 03 2020 16:36:20 GMT-0500 (Central Daylight Time)","Mozilla/5.0 (X11; Linux x86_64) AppleWebKit/537.36 (KHTML, like Gecko) Chrome/85.0.4183.121 Safari/537.36",18,"[0.9, 0.5, 0.1]","[0.8, 0.4, 0.2]","[u'blue', u'black', u'red']","[u'left', u'middle', u'right']","[0.9, 0.5, 0.1]","[u'high', u'medium', u'low']","blue",49,"left","high","True","False",379,1050,NA
"A2OA3ZDP0Y3Q9U","Sat Oct 03 2020 16:26:59 GMT-0500 (Central Daylight Time)","Sat Oct 03 2020 16:36:20 GMT-0500 (Central Daylight Time)","Mozilla/5.0 (X11; Linux x86_64) AppleWebKit/537.36 (KHTML, like Gecko) Chrome/85.0.4183.121 Safari/537.36",19,"[0.9, 0.5, 0.1]","[0.8, 0.4, 0.2]","[u'blue', u'black', u'red']","[u'left', u'middle', u'right']","[0.9, 0.5, 0.1]","[u'high', u'medium', u'low']","blue",49,"left","high","True","False",348,1150,NA
"A2OA3ZDP0Y3Q9U","Sat Oct 03 2020 16:26:59 GMT-0500 (Central Daylight Time)","Sat Oct 03 2020 16:36:20 GMT-0500 (Central Daylight Time)","Mozilla/5.0 (X11; Linux x86_64) AppleWebKit/537.36 (KHTML, like Gecko) Chrome/85.0.4183.121 Safari/537.36",20,"[0.9, 0.5, 0.1]","[0.8, 0.4, 0.2]","[u'blue', u'black', u'red']","[u'left', u'middle', u'right']","[0.9, 0.5, 0.1]","[u'high', u'medium', u'low']","blue",49,"left","high","True","False",395,1250,NA
"A2OA3ZDP0Y3Q9U","Sat Oct 03 2020 16:26:59 GMT-0500 (Central Daylight Time)","Sat Oct 03 2020 16:36:20 GMT-0500 (Central Daylight Time)","Mozilla/5.0 (X11; Linux x86_64) AppleWebKit/537.36 (KHTML, like Gecko) Chrome/85.0.4183.121 Safari/537.36",21,"[0.9, 0.5, 0.1]","[0.8, 0.4, 0.2]","[u'blue', u'black', u'red']","[u'left', u'middle', u'right']","[0.9, 0.5, 0.1]","[u'high', u'medium', u'low']","blue",49,"left","high","False","False",642,1200,NA
"A2OA3ZDP0Y3Q9U","Sat Oct 03 2020 16:26:59 GMT-0500 (Central Daylight Time)","Sat Oct 03 2020 16:36:20 GMT-0500 (Central Daylight Time)","Mozilla/5.0 (X11; Linux x86_64) AppleWebKit/537.36 (KHTML, like Gecko) Chrome/85.0.4183.121 Safari/537.36",22,"[0.9, 0.5, 0.1]","[0.8, 0.4, 0.2]","[u'blue', u'black', u'red']","[u'left', u'middle', u'right']","[0.9, 0.5, 0.1]","[u'high', u'medium', u'low']","blue",49,"left","high","True","True",315,1300,NA
"A2OA3ZDP0Y3Q9U","Sat Oct 03 2020 16:26:59 GMT-0500 (Central Daylight Time)","Sat Oct 03 2020 16:36:20 GMT-0500 (Central Daylight Time)","Mozilla/5.0 (X11; Linux x86_64) AppleWebKit/537.36 (KHTML, like Gecko) Chrome/85.0.4183.121 Safari/537.36",23,"[0.9, 0.5, 0.1]","[0.8, 0.4, 0.2]","[u'blue', u'black', u'red']","[u'left', u'middle', u'right']","[0.9, 0.5, 0.1]","[u'medium', u'low', u'high']","blue",49,"left","medium","True","False",435,1400,NA
"A2OA3ZDP0Y3Q9U","Sat Oct 03 2020 16:26:59 GMT-0500 (Central Daylight Time)","Sat Oct 03 2020 16:36:20 GMT-0500 (Central Daylight Time)","Mozilla/5.0 (X11; Linux x86_64) AppleWebKit/537.36 (KHTML, like Gecko) Chrome/85.0.4183.121 Safari/537.36",24,"[0.9, 0.5, 0.1]","[0.8, 0.4, 0.2]","[u'blue', u'black', u'red']","[u'left', u'middle', u'right']","[0.9, 0.5, 0.1]","[u'medium', u'low', u'high']","blue",49,"left","medium","True","False",379,1500,NA
"A2OA3ZDP0Y3Q9U","Sat Oct 03 2020 16:26:59 GMT-0500 (Central Daylight Time)","Sat Oct 03 2020 16:36:20 GMT-0500 (Central Daylight Time)","Mozilla/5.0 (X11; Linux x86_64) AppleWebKit/537.36 (KHTML, like Gecko) Chrome/85.0.4183.121 Safari/537.36",25,"[0.9, 0.5, 0.1]","[0.8, 0.4, 0.2]","[u'blue', u'black', u'red']","[u'left', u'middle', u'right']","[0.9, 0.5, 0.1]","[u'medium', u'low', u'high']","blue",49,"left","medium","True","False",380,1600,NA
"A2OA3ZDP0Y3Q9U","Sat Oct 03 2020 16:26:59 GMT-0500 (Central Daylight Time)","Sat Oct 03 2020 16:36:20 GMT-0500 (Central Daylight Time)","Mozilla/5.0 (X11; Linux x86_64) AppleWebKit/537.36 (KHTML, like Gecko) Chrome/85.0.4183.121 Safari/537.36",26,"[0.9, 0.5, 0.1]","[0.8, 0.4, 0.2]","[u'blue', u'black', u'red']","[u'left', u'middle', u'right']","[0.9, 0.5, 0.1]","[u'medium', u'low', u'high']","blue",49,"left","medium","False","False",458,1550,NA
"A2OA3ZDP0Y3Q9U","Sat Oct 03 2020 16:26:59 GMT-0500 (Central Daylight Time)","Sat Oct 03 2020 16:36:20 GMT-0500 (Central Daylight Time)","Mozilla/5.0 (X11; Linux x86_64) AppleWebKit/537.36 (KHTML, like Gecko) Chrome/85.0.4183.121 Safari/537.36",27,"[0.9, 0.5, 0.1]","[0.8, 0.4, 0.2]","[u'blue', u'black', u'red']","[u'left', u'middle', u'right']","[0.9, 0.5, 0.1]","[u'medium', u'low', u'high']","blue",49,"left","medium","True","False",332,1650,NA
"A2OA3ZDP0Y3Q9U","Sat Oct 03 2020 16:26:59 GMT-0500 (Central Daylight Time)","Sat Oct 03 2020 16:36:20 GMT-0500 (Central Daylight Time)","Mozilla/5.0 (X11; Linux x86_64) AppleWebKit/537.36 (KHTML, like Gecko) Chrome/85.0.4183.121 Safari/537.36",28,"[0.9, 0.5, 0.1]","[0.8, 0.4, 0.2]","[u'blue', u'black', u'red']","[u'left', u'middle', u'right']","[0.9, 0.5, 0.1]","[u'medium', u'low', u'high']","blue",49,"left","medium","False","False",418,1600,NA
"A2OA3ZDP0Y3Q9U","Sat Oct 03 2020 16:26:59 GMT-0500 (Central Daylight Time)","Sat Oct 03 2020 16:36:20 GMT-0500 (Central Daylight Time)","Mozilla/5.0 (X11; Linux x86_64) AppleWebKit/537.36 (KHTML, like Gecko) Chrome/85.0.4183.121 Safari/537.36",29,"[0.9, 0.5, 0.1]","[0.8, 0.4, 0.2]","[u'blue', u'black', u'red']","[u'left', u'middle', u'right']","[0.9, 0.5, 0.1]","[u'medium', u'low', u'high']","blue",49,"left","medium","True","False",475,1700,NA
"A2OA3ZDP0Y3Q9U","Sat Oct 03 2020 16:26:59 GMT-0500 (Central Daylight Time)","Sat Oct 03 2020 16:36:20 GMT-0500 (Central Daylight Time)","Mozilla/5.0 (X11; Linux x86_64) AppleWebKit/537.36 (KHTML, like Gecko) Chrome/85.0.4183.121 Safari/537.36",30,"[0.9, 0.5, 0.1]","[0.8, 0.4, 0.2]","[u'blue', u'black', u'red']","[u'left', u'middle', u'right']","[0.9, 0.5, 0.1]","[u'medium', u'low', u'high']","blue",49,"left","medium","True","False",339,1800,NA
"A2OA3ZDP0Y3Q9U","Sat Oct 03 2020 16:26:59 GMT-0500 (Central Daylight Time)","Sat Oct 03 2020 16:36:20 GMT-0500 (Central Daylight Time)","Mozilla/5.0 (X11; Linux x86_64) AppleWebKit/537.36 (KHTML, like Gecko) Chrome/85.0.4183.121 Safari/537.36",31,"[0.9, 0.5, 0.1]","[0.8, 0.4, 0.2]","[u'blue', u'black', u'red']","[u'left', u'middle', u'right']","[0.9, 0.5, 0.1]","[u'medium', u'low', u'high']","blue",49,"left","medium","False","False",355,1750,NA
"A2OA3ZDP0Y3Q9U","Sat Oct 03 2020 16:26:59 GMT-0500 (Central Daylight Time)","Sat Oct 03 2020 16:36:20 GMT-0500 (Central Daylight Time)","Mozilla/5.0 (X11; Linux x86_64) AppleWebKit/537.36 (KHTML, like Gecko) Chrome/85.0.4183.121 Safari/537.36",32,"[0.9, 0.5, 0.1]","[0.8, 0.4, 0.2]","[u'blue', u'black', u'red']","[u'left', u'middle', u'right']","[0.9, 0.5, 0.1]","[u'medium', u'low', u'high']","blue",49,"left","medium","False","False",323,1700,NA
"A2OA3ZDP0Y3Q9U","Sat Oct 03 2020 16:26:59 GMT-0500 (Central Daylight Time)","Sat Oct 03 2020 16:36:20 GMT-0500 (Central Daylight Time)","Mozilla/5.0 (X11; Linux x86_64) AppleWebKit/537.36 (KHTML, like Gecko) Chrome/85.0.4183.121 Safari/537.36",33,"[0.9, 0.5, 0.1]","[0.8, 0.4, 0.2]","[u'blue', u'black', u'red']","[u'left', u'middle', u'right']","[0.9, 0.5, 0.1]","[u'medium', u'low', u'high']","blue",49,"left","medium","False","False",316,1650,NA
"A2OA3ZDP0Y3Q9U","Sat Oct 03 2020 16:26:59 GMT-0500 (Central Daylight Time)","Sat Oct 03 2020 16:36:20 GMT-0500 (Central Daylight Time)","Mozilla/5.0 (X11; Linux x86_64) AppleWebKit/537.36 (KHTML, like Gecko) Chrome/85.0.4183.121 Safari/537.36",34,"[0.9, 0.5, 0.1]","[0.8, 0.4, 0.2]","[u'blue', u'black', u'red']","[u'left', u'middle', u'right']","[0.9, 0.5, 0.1]","[u'medium', u'low', u'high']","red",51,"right","high","True","False",348,1750,NA
"A2OA3ZDP0Y3Q9U","Sat Oct 03 2020 16:26:59 GMT-0500 (Central Daylight Time)","Sat Oct 03 2020 16:36:20 GMT-0500 (Central Daylight Time)","Mozilla/5.0 (X11; Linux x86_64) AppleWebKit/537.36 (KHTML, like Gecko) Chrome/85.0.4183.121 Safari/537.36",35,"[0.9, 0.5, 0.1]","[0.8, 0.4, 0.2]","[u'blue', u'black', u'red']","[u'left', u'middle', u'right']","[0.9, 0.5, 0.1]","[u'medium', u'low', u'high']","red",51,"right","high","True","False",346,1850,NA
"A2OA3ZDP0Y3Q9U","Sat Oct 03 2020 16:26:59 GMT-0500 (Central Daylight Time)","Sat Oct 03 2020 16:36:20 GMT-0500 (Central Daylight Time)","Mozilla/5.0 (X11; Linux x86_64) AppleWebKit/537.36 (KHTML, like Gecko) Chrome/85.0.4183.121 Safari/537.36",36,"[0.9, 0.5, 0.1]","[0.8, 0.4, 0.2]","[u'blue', u'black', u'red']","[u'left', u'middle', u'right']","[0.9, 0.5, 0.1]","[u'medium', u'low', u'high']","red",51,"right","high","True","False",499,1950,NA
"A2OA3ZDP0Y3Q9U","Sat Oct 03 2020 16:26:59 GMT-0500 (Central Daylight Time)","Sat Oct 03 2020 16:36:20 GMT-0500 (Central Daylight Time)","Mozilla/5.0 (X11; Linux x86_64) AppleWebKit/537.36 (KHTML, like Gecko) Chrome/85.0.4183.121 Safari/537.36",37,"[0.9, 0.5, 0.1]","[0.8, 0.4, 0.2]","[u'blue', u'black', u'red']","[u'left', u'middle', u'right']","[0.9, 0.5, 0.1]","[u'medium', u'low', u'high']","red",51,"right","high","True","False",388,2050,NA
"A2OA3ZDP0Y3Q9U","Sat Oct 03 2020 16:26:59 GMT-0500 (Central Daylight Time)","Sat Oct 03 2020 16:36:20 GMT-0500 (Central Daylight Time)","Mozilla/5.0 (X11; Linux x86_64) AppleWebKit/537.36 (KHTML, like Gecko) Chrome/85.0.4183.121 Safari/537.36",38,"[0.9, 0.5, 0.1]","[0.8, 0.4, 0.2]","[u'blue', u'black', u'red']","[u'left', u'middle', u'right']","[0.9, 0.5, 0.1]","[u'medium', u'low', u'high']","red",51,"right","high","True","False",387,2150,NA
"A2OA3ZDP0Y3Q9U","Sat Oct 03 2020 16:26:59 GMT-0500 (Central Daylight Time)","Sat Oct 03 2020 16:36:20 GMT-0500 (Central Daylight Time)","Mozilla/5.0 (X11; Linux x86_64) AppleWebKit/537.36 (KHTML, like Gecko) Chrome/85.0.4183.121 Safari/537.36",39,"[0.9, 0.5, 0.1]","[0.8, 0.4, 0.2]","[u'blue', u'black', u'red']","[u'left', u'middle', u'right']","[0.9, 0.5, 0.1]","[u'medium', u'low', u'high']","red",51,"right","high","True","False",371,2250,NA
"A2OA3ZDP0Y3Q9U","Sat Oct 03 2020 16:26:59 GMT-0500 (Central Daylight Time)","Sat Oct 03 2020 16:36:20 GMT-0500 (Central Daylight Time)","Mozilla/5.0 (X11; Linux x86_64) AppleWebKit/537.36 (KHTML, like Gecko) Chrome/85.0.4183.121 Safari/537.36",40,"[0.9, 0.5, 0.1]","[0.8, 0.4, 0.2]","[u'blue', u'black', u'red']","[u'left', u'middle', u'right']","[0.9, 0.5, 0.1]","[u'medium', u'low', u'high']","red",51,"right","high","True","False",652,2350,NA
"A2OA3ZDP0Y3Q9U","Sat Oct 03 2020 16:26:59 GMT-0500 (Central Daylight Time)","Sat Oct 03 2020 16:36:20 GMT-0500 (Central Daylight Time)","Mozilla/5.0 (X11; Linux x86_64) AppleWebKit/537.36 (KHTML, like Gecko) Chrome/85.0.4183.121 Safari/537.36",41,"[0.9, 0.5, 0.1]","[0.8, 0.4, 0.2]","[u'blue', u'black', u'red']","[u'left', u'middle', u'right']","[0.9, 0.5, 0.1]","[u'high', u'medium', u'low']","black",50,"middle","medium","True","False",1387,2450,NA
"A2OA3ZDP0Y3Q9U","Sat Oct 03 2020 16:26:59 GMT-0500 (Central Daylight Time)","Sat Oct 03 2020 16:36:20 GMT-0500 (Central Daylight Time)","Mozilla/5.0 (X11; Linux x86_64) AppleWebKit/537.36 (KHTML, like Gecko) Chrome/85.0.4183.121 Safari/537.36",42,"[0.9, 0.5, 0.1]","[0.8, 0.4, 0.2]","[u'blue', u'black', u'red']","[u'left', u'middle', u'right']","[0.9, 0.5, 0.1]","[u'high', u'medium', u'low']","black",50,"middle","medium","True","False",396,2550,NA
"A2OA3ZDP0Y3Q9U","Sat Oct 03 2020 16:26:59 GMT-0500 (Central Daylight Time)","Sat Oct 03 2020 16:36:20 GMT-0500 (Central Daylight Time)","Mozilla/5.0 (X11; Linux x86_64) AppleWebKit/537.36 (KHTML, like Gecko) Chrome/85.0.4183.121 Safari/537.36",43,"[0.9, 0.5, 0.1]","[0.8, 0.4, 0.2]","[u'blue', u'black', u'red']","[u'left', u'middle', u'right']","[0.9, 0.5, 0.1]","[u'high', u'medium', u'low']","black",50,"middle","medium","False","False",499,2500,NA
"A2OA3ZDP0Y3Q9U","Sat Oct 03 2020 16:26:59 GMT-0500 (Central Daylight Time)","Sat Oct 03 2020 16:36:20 GMT-0500 (Central Daylight Time)","Mozilla/5.0 (X11; Linux x86_64) AppleWebKit/537.36 (KHTML, like Gecko) Chrome/85.0.4183.121 Safari/537.36",44,"[0.9, 0.5, 0.1]","[0.8, 0.4, 0.2]","[u'blue', u'black', u'red']","[u'left', u'middle', u'right']","[0.9, 0.5, 0.1]","[u'high', u'medium', u'low']","black",50,"middle","medium","False","False",315,2450,NA
"A2OA3ZDP0Y3Q9U","Sat Oct 03 2020 16:26:59 GMT-0500 (Central Daylight Time)","Sat Oct 03 2020 16:36:20 GMT-0500 (Central Daylight Time)","Mozilla/5.0 (X11; Linux x86_64) AppleWebKit/537.36 (KHTML, like Gecko) Chrome/85.0.4183.121 Safari/537.36",45,"[0.9, 0.5, 0.1]","[0.8, 0.4, 0.2]","[u'blue', u'black', u'red']","[u'left', u'middle', u'right']","[0.9, 0.5, 0.1]","[u'high', u'medium', u'low']","blue",49,"left","high","True","False",307,2550,NA
"A2OA3ZDP0Y3Q9U","Sat Oct 03 2020 16:26:59 GMT-0500 (Central Daylight Time)","Sat Oct 03 2020 16:36:20 GMT-0500 (Central Daylight Time)","Mozilla/5.0 (X11; Linux x86_64) AppleWebKit/537.36 (KHTML, like Gecko) Chrome/85.0.4183.121 Safari/537.36",46,"[0.9, 0.5, 0.1]","[0.8, 0.4, 0.2]","[u'blue', u'black', u'red']","[u'left', u'middle', u'right']","[0.9, 0.5, 0.1]","[u'high', u'medium', u'low']","blue",49,"left","high","True","False",323,2650,NA
"A2OA3ZDP0Y3Q9U","Sat Oct 03 2020 16:26:59 GMT-0500 (Central Daylight Time)","Sat Oct 03 2020 16:36:20 GMT-0500 (Central Daylight Time)","Mozilla/5.0 (X11; Linux x86_64) AppleWebKit/537.36 (KHTML, like Gecko) Chrome/85.0.4183.121 Safari/537.36",47,"[0.9, 0.5, 0.1]","[0.8, 0.4, 0.2]","[u'blue', u'black', u'red']","[u'left', u'middle', u'right']","[0.9, 0.5, 0.1]","[u'high', u'medium', u'low']","blue",49,"left","high","True","False",516,2750,NA
"A2OA3ZDP0Y3Q9U","Sat Oct 03 2020 16:26:59 GMT-0500 (Central Daylight Time)","Sat Oct 03 2020 16:36:20 GMT-0500 (Central Daylight Time)","Mozilla/5.0 (X11; Linux x86_64) AppleWebKit/537.36 (KHTML, like Gecko) Chrome/85.0.4183.121 Safari/537.36",48,"[0.9, 0.5, 0.1]","[0.8, 0.4, 0.2]","[u'blue', u'black', u'red']","[u'left', u'middle', u'right']","[0.9, 0.5, 0.1]","[u'high', u'medium', u'low']","blue",49,"left","high","True","False",322,2850,NA
"A2OA3ZDP0Y3Q9U","Sat Oct 03 2020 16:26:59 GMT-0500 (Central Daylight Time)","Sat Oct 03 2020 16:36:20 GMT-0500 (Central Daylight Time)","Mozilla/5.0 (X11; Linux x86_64) AppleWebKit/537.36 (KHTML, like Gecko) Chrome/85.0.4183.121 Safari/537.36",49,"[0.9, 0.5, 0.1]","[0.8, 0.4, 0.2]","[u'blue', u'black', u'red']","[u'left', u'middle', u'right']","[0.9, 0.5, 0.1]","[u'high', u'medium', u'low']","blue",49,"left","high","True","False",828,2950,NA
"A2OA3ZDP0Y3Q9U","Sat Oct 03 2020 16:26:59 GMT-0500 (Central Daylight Time)","Sat Oct 03 2020 16:36:20 GMT-0500 (Central Daylight Time)","Mozilla/5.0 (X11; Linux x86_64) AppleWebKit/537.36 (KHTML, like Gecko) Chrome/85.0.4183.121 Safari/537.36",50,"[0.9, 0.5, 0.1]","[0.8, 0.4, 0.2]","[u'blue', u'black', u'red']","[u'left', u'middle', u'right']","[0.9, 0.5, 0.1]","[u'high', u'medium', u'low']","red",51,"right","low","False","False",450,2900,NA
"A2OA3ZDP0Y3Q9U","Sat Oct 03 2020 16:26:59 GMT-0500 (Central Daylight Time)","Sat Oct 03 2020 16:36:20 GMT-0500 (Central Daylight Time)","Mozilla/5.0 (X11; Linux x86_64) AppleWebKit/537.36 (KHTML, like Gecko) Chrome/85.0.4183.121 Safari/537.36",51,"[0.9, 0.5, 0.1]","[0.8, 0.4, 0.2]","[u'blue', u'black', u'red']","[u'left', u'middle', u'right']","[0.9, 0.5, 0.1]","[u'high', u'medium', u'low']","blue",49,"left","high","True","False",301,3000,NA
"A2OA3ZDP0Y3Q9U","Sat Oct 03 2020 16:26:59 GMT-0500 (Central Daylight Time)","Sat Oct 03 2020 16:36:20 GMT-0500 (Central Daylight Time)","Mozilla/5.0 (X11; Linux x86_64) AppleWebKit/537.36 (KHTML, like Gecko) Chrome/85.0.4183.121 Safari/537.36",52,"[0.9, 0.5, 0.1]","[0.8, 0.4, 0.2]","[u'blue', u'black', u'red']","[u'left', u'middle', u'right']","[0.9, 0.5, 0.1]","[u'high', u'medium', u'low']","blue",49,"left","high","True","False",444,3100,NA
"A2OA3ZDP0Y3Q9U","Sat Oct 03 2020 16:26:59 GMT-0500 (Central Daylight Time)","Sat Oct 03 2020 16:36:20 GMT-0500 (Central Daylight Time)","Mozilla/5.0 (X11; Linux x86_64) AppleWebKit/537.36 (KHTML, like Gecko) Chrome/85.0.4183.121 Safari/537.36",53,"[0.9, 0.5, 0.1]","[0.8, 0.4, 0.2]","[u'blue', u'black', u'red']","[u'left', u'middle', u'right']","[0.9, 0.5, 0.1]","[u'high', u'medium', u'low']","blue",49,"left","high","True","False",372,3200,NA
"A2OA3ZDP0Y3Q9U","Sat Oct 03 2020 16:26:59 GMT-0500 (Central Daylight Time)","Sat Oct 03 2020 16:36:20 GMT-0500 (Central Daylight Time)","Mozilla/5.0 (X11; Linux x86_64) AppleWebKit/537.36 (KHTML, like Gecko) Chrome/85.0.4183.121 Safari/537.36",54,"[0.9, 0.5, 0.1]","[0.8, 0.4, 0.2]","[u'blue', u'black', u'red']","[u'left', u'middle', u'right']","[0.9, 0.5, 0.1]","[u'high', u'medium', u'low']","blue",49,"left","high","True","True",340,3300,NA
"A2OA3ZDP0Y3Q9U","Sat Oct 03 2020 16:26:59 GMT-0500 (Central Daylight Time)","Sat Oct 03 2020 16:36:20 GMT-0500 (Central Daylight Time)","Mozilla/5.0 (X11; Linux x86_64) AppleWebKit/537.36 (KHTML, like Gecko) Chrome/85.0.4183.121 Safari/537.36",55,"[0.9, 0.5, 0.1]","[0.8, 0.4, 0.2]","[u'blue', u'black', u'red']","[u'left', u'middle', u'right']","[0.9, 0.5, 0.1]","[u'medium', u'low', u'high']","blue",49,"left","medium","False","False",379,3250,NA
"A2OA3ZDP0Y3Q9U","Sat Oct 03 2020 16:26:59 GMT-0500 (Central Daylight Time)","Sat Oct 03 2020 16:36:20 GMT-0500 (Central Daylight Time)","Mozilla/5.0 (X11; Linux x86_64) AppleWebKit/537.36 (KHTML, like Gecko) Chrome/85.0.4183.121 Safari/537.36",56,"[0.9, 0.5, 0.1]","[0.8, 0.4, 0.2]","[u'blue', u'black', u'red']","[u'left', u'middle', u'right']","[0.9, 0.5, 0.1]","[u'medium', u'low', u'high']","blue",49,"left","medium","False","False",332,3200,NA
"A2OA3ZDP0Y3Q9U","Sat Oct 03 2020 16:26:59 GMT-0500 (Central Daylight Time)","Sat Oct 03 2020 16:36:20 GMT-0500 (Central Daylight Time)","Mozilla/5.0 (X11; Linux x86_64) AppleWebKit/537.36 (KHTML, like Gecko) Chrome/85.0.4183.121 Safari/537.36",57,"[0.9, 0.5, 0.1]","[0.8, 0.4, 0.2]","[u'blue', u'black', u'red']","[u'left', u'middle', u'right']","[0.9, 0.5, 0.1]","[u'medium', u'low', u'high']","red",51,"right","high","True","False",1836,3300,NA
"A2OA3ZDP0Y3Q9U","Sat Oct 03 2020 16:26:59 GMT-0500 (Central Daylight Time)","Sat Oct 03 2020 16:36:20 GMT-0500 (Central Daylight Time)","Mozilla/5.0 (X11; Linux x86_64) AppleWebKit/537.36 (KHTML, like Gecko) Chrome/85.0.4183.121 Safari/537.36",58,"[0.9, 0.5, 0.1]","[0.8, 0.4, 0.2]","[u'blue', u'black', u'red']","[u'left', u'middle', u'right']","[0.9, 0.5, 0.1]","[u'medium', u'low', u'high']","red",51,"right","high","True","False",427,3400,NA
"A2OA3ZDP0Y3Q9U","Sat Oct 03 2020 16:26:59 GMT-0500 (Central Daylight Time)","Sat Oct 03 2020 16:36:20 GMT-0500 (Central Daylight Time)","Mozilla/5.0 (X11; Linux x86_64) AppleWebKit/537.36 (KHTML, like Gecko) Chrome/85.0.4183.121 Safari/537.36",59,"[0.9, 0.5, 0.1]","[0.8, 0.4, 0.2]","[u'blue', u'black', u'red']","[u'left', u'middle', u'right']","[0.9, 0.5, 0.1]","[u'medium', u'low', u'high']","red",51,"right","high","True","False",547,3500,NA
"A2OA3ZDP0Y3Q9U","Sat Oct 03 2020 16:26:59 GMT-0500 (Central Daylight Time)","Sat Oct 03 2020 16:36:20 GMT-0500 (Central Daylight Time)","Mozilla/5.0 (X11; Linux x86_64) AppleWebKit/537.36 (KHTML, like Gecko) Chrome/85.0.4183.121 Safari/537.36",60,"[0.9, 0.5, 0.1]","[0.8, 0.4, 0.2]","[u'blue', u'black', u'red']","[u'left', u'middle', u'right']","[0.9, 0.5, 0.1]","[u'medium', u'low', u'high']","red",51,"right","high","True","False",619,3600,NA
"A2OA3ZDP0Y3Q9U","Sat Oct 03 2020 16:26:59 GMT-0500 (Central Daylight Time)","Sat Oct 03 2020 16:36:20 GMT-0500 (Central Daylight Time)","Mozilla/5.0 (X11; Linux x86_64) AppleWebKit/537.36 (KHTML, like Gecko) Chrome/85.0.4183.121 Safari/537.36",61,"[0.9, 0.5, 0.1]","[0.8, 0.4, 0.2]","[u'blue', u'black', u'red']","[u'left', u'middle', u'right']","[0.9, 0.5, 0.1]","[u'medium', u'low', u'high']","red",51,"right","high","False","False",579,3550,NA
"A2OA3ZDP0Y3Q9U","Sat Oct 03 2020 16:26:59 GMT-0500 (Central Daylight Time)","Sat Oct 03 2020 16:36:20 GMT-0500 (Central Daylight Time)","Mozilla/5.0 (X11; Linux x86_64) AppleWebKit/537.36 (KHTML, like Gecko) Chrome/85.0.4183.121 Safari/537.36",62,"[0.9, 0.5, 0.1]","[0.8, 0.4, 0.2]","[u'blue', u'black', u'red']","[u'left', u'middle', u'right']","[0.9, 0.5, 0.1]","[u'medium', u'low', u'high']","red",51,"right","high","True","False",1314,3650,NA
"A2OA3ZDP0Y3Q9U","Sat Oct 03 2020 16:26:59 GMT-0500 (Central Daylight Time)","Sat Oct 03 2020 16:36:20 GMT-0500 (Central Daylight Time)","Mozilla/5.0 (X11; Linux x86_64) AppleWebKit/537.36 (KHTML, like Gecko) Chrome/85.0.4183.121 Safari/537.36",63,"[0.9, 0.5, 0.1]","[0.8, 0.4, 0.2]","[u'blue', u'black', u'red']","[u'left', u'middle', u'right']","[0.9, 0.5, 0.1]","[u'medium', u'low', u'high']","red",51,"right","high","True","False",396,3750,NA
"A2OA3ZDP0Y3Q9U","Sat Oct 03 2020 16:26:59 GMT-0500 (Central Daylight Time)","Sat Oct 03 2020 16:36:20 GMT-0500 (Central Daylight Time)","Mozilla/5.0 (X11; Linux x86_64) AppleWebKit/537.36 (KHTML, like Gecko) Chrome/85.0.4183.121 Safari/537.36",64,"[0.9, 0.5, 0.1]","[0.8, 0.4, 0.2]","[u'blue', u'black', u'red']","[u'left', u'middle', u'right']","[0.9, 0.5, 0.1]","[u'medium', u'low', u'high']","red",51,"right","high","True","False",508,3850,NA
"A2OA3ZDP0Y3Q9U","Sat Oct 03 2020 16:26:59 GMT-0500 (Central Daylight Time)","Sat Oct 03 2020 16:36:20 GMT-0500 (Central Daylight Time)","Mozilla/5.0 (X11; Linux x86_64) AppleWebKit/537.36 (KHTML, like Gecko) Chrome/85.0.4183.121 Safari/537.36",65,"[0.9, 0.5, 0.1]","[0.8, 0.4, 0.2]","[u'blue', u'black', u'red']","[u'left', u'middle', u'right']","[0.9, 0.5, 0.1]","[u'medium', u'low', u'high']","red",51,"right","high","True","True",579,3950,NA
"A2OA3ZDP0Y3Q9U","Sat Oct 03 2020 16:26:59 GMT-0500 (Central Daylight Time)","Sat Oct 03 2020 16:36:20 GMT-0500 (Central Daylight Time)","Mozilla/5.0 (X11; Linux x86_64) AppleWebKit/537.36 (KHTML, like Gecko) Chrome/85.0.4183.121 Safari/537.36",66,"[0.9, 0.5, 0.1]","[0.8, 0.4, 0.2]","[u'blue', u'black', u'red']","[u'left', u'middle', u'right']","[0.9, 0.5, 0.1]","[u'high', u'medium', u'low']","red",51,"right","low","False","False",347,3900,NA
"A2OA3ZDP0Y3Q9U","Sat Oct 03 2020 16:26:59 GMT-0500 (Central Daylight Time)","Sat Oct 03 2020 16:36:20 GMT-0500 (Central Daylight Time)","Mozilla/5.0 (X11; Linux x86_64) AppleWebKit/537.36 (KHTML, like Gecko) Chrome/85.0.4183.121 Safari/537.36",67,"[0.9, 0.5, 0.1]","[0.8, 0.4, 0.2]","[u'blue', u'black', u'red']","[u'left', u'middle', u'right']","[0.9, 0.5, 0.1]","[u'high', u'medium', u'low']","red",51,"right","low","False","False",323,3850,NA
"A2OA3ZDP0Y3Q9U","Sat Oct 03 2020 16:26:59 GMT-0500 (Central Daylight Time)","Sat Oct 03 2020 16:36:20 GMT-0500 (Central Daylight Time)","Mozilla/5.0 (X11; Linux x86_64) AppleWebKit/537.36 (KHTML, like Gecko) Chrome/85.0.4183.121 Safari/537.36",68,"[0.9, 0.5, 0.1]","[0.8, 0.4, 0.2]","[u'blue', u'black', u'red']","[u'left', u'middle', u'right']","[0.9, 0.5, 0.1]","[u'high', u'medium', u'low']","blue",49,"left","high","True","False",1516,3950,NA
"A2OA3ZDP0Y3Q9U","Sat Oct 03 2020 16:26:59 GMT-0500 (Central Daylight Time)","Sat Oct 03 2020 16:36:20 GMT-0500 (Central Daylight Time)","Mozilla/5.0 (X11; Linux x86_64) AppleWebKit/537.36 (KHTML, like Gecko) Chrome/85.0.4183.121 Safari/537.36",69,"[0.9, 0.5, 0.1]","[0.8, 0.4, 0.2]","[u'blue', u'black', u'red']","[u'left', u'middle', u'right']","[0.9, 0.5, 0.1]","[u'high', u'medium', u'low']","blue",49,"left","high","True","False",347,4050,NA
"A2OA3ZDP0Y3Q9U","Sat Oct 03 2020 16:26:59 GMT-0500 (Central Daylight Time)","Sat Oct 03 2020 16:36:20 GMT-0500 (Central Daylight Time)","Mozilla/5.0 (X11; Linux x86_64) AppleWebKit/537.36 (KHTML, like Gecko) Chrome/85.0.4183.121 Safari/537.36",70,"[0.9, 0.5, 0.1]","[0.8, 0.4, 0.2]","[u'blue', u'black', u'red']","[u'left', u'middle', u'right']","[0.9, 0.5, 0.1]","[u'high', u'medium', u'low']","blue",49,"left","high","True","False",396,4150,NA
"A2OA3ZDP0Y3Q9U","Sat Oct 03 2020 16:26:59 GMT-0500 (Central Daylight Time)","Sat Oct 03 2020 16:36:20 GMT-0500 (Central Daylight Time)","Mozilla/5.0 (X11; Linux x86_64) AppleWebKit/537.36 (KHTML, like Gecko) Chrome/85.0.4183.121 Safari/537.36",71,"[0.9, 0.5, 0.1]","[0.8, 0.4, 0.2]","[u'blue', u'black', u'red']","[u'left', u'middle', u'right']","[0.9, 0.5, 0.1]","[u'high', u'medium', u'low']","blue",49,"left","high","True","False",378,4250,NA
"A2OA3ZDP0Y3Q9U","Sat Oct 03 2020 16:26:59 GMT-0500 (Central Daylight Time)","Sat Oct 03 2020 16:36:20 GMT-0500 (Central Daylight Time)","Mozilla/5.0 (X11; Linux x86_64) AppleWebKit/537.36 (KHTML, like Gecko) Chrome/85.0.4183.121 Safari/537.36",72,"[0.9, 0.5, 0.1]","[0.8, 0.4, 0.2]","[u'blue', u'black', u'red']","[u'left', u'middle', u'right']","[0.9, 0.5, 0.1]","[u'high', u'medium', u'low']","blue",49,"left","high","False","False",316,4200,NA
"A2OA3ZDP0Y3Q9U","Sat Oct 03 2020 16:26:59 GMT-0500 (Central Daylight Time)","Sat Oct 03 2020 16:36:20 GMT-0500 (Central Daylight Time)","Mozilla/5.0 (X11; Linux x86_64) AppleWebKit/537.36 (KHTML, like Gecko) Chrome/85.0.4183.121 Safari/537.36",73,"[0.9, 0.5, 0.1]","[0.8, 0.4, 0.2]","[u'blue', u'black', u'red']","[u'left', u'middle', u'right']","[0.9, 0.5, 0.1]","[u'high', u'medium', u'low']","black",50,"middle","medium","True","False",404,4300,NA
"A2OA3ZDP0Y3Q9U","Sat Oct 03 2020 16:26:59 GMT-0500 (Central Daylight Time)","Sat Oct 03 2020 16:36:20 GMT-0500 (Central Daylight Time)","Mozilla/5.0 (X11; Linux x86_64) AppleWebKit/537.36 (KHTML, like Gecko) Chrome/85.0.4183.121 Safari/537.36",74,"[0.9, 0.5, 0.1]","[0.8, 0.4, 0.2]","[u'blue', u'black', u'red']","[u'left', u'middle', u'right']","[0.9, 0.5, 0.1]","[u'high', u'medium', u'low']","black",50,"middle","medium","False","False",419,4250,NA
"A2OA3ZDP0Y3Q9U","Sat Oct 03 2020 16:26:59 GMT-0500 (Central Daylight Time)","Sat Oct 03 2020 16:36:20 GMT-0500 (Central Daylight Time)","Mozilla/5.0 (X11; Linux x86_64) AppleWebKit/537.36 (KHTML, like Gecko) Chrome/85.0.4183.121 Safari/537.36",75,"[0.9, 0.5, 0.1]","[0.8, 0.4, 0.2]","[u'blue', u'black', u'red']","[u'left', u'middle', u'right']","[0.9, 0.5, 0.1]","[u'high', u'medium', u'low']","blue",49,"left","high","True","False",267,4350,NA
"A2OA3ZDP0Y3Q9U","Sat Oct 03 2020 16:26:59 GMT-0500 (Central Daylight Time)","Sat Oct 03 2020 16:36:20 GMT-0500 (Central Daylight Time)","Mozilla/5.0 (X11; Linux x86_64) AppleWebKit/537.36 (KHTML, like Gecko) Chrome/85.0.4183.121 Safari/537.36",76,"[0.9, 0.5, 0.1]","[0.8, 0.4, 0.2]","[u'blue', u'black', u'red']","[u'left', u'middle', u'right']","[0.9, 0.5, 0.1]","[u'high', u'medium', u'low']","blue",49,"left","high","True","False",340,4450,NA
"A2OA3ZDP0Y3Q9U","Sat Oct 03 2020 16:26:59 GMT-0500 (Central Daylight Time)","Sat Oct 03 2020 16:36:20 GMT-0500 (Central Daylight Time)","Mozilla/5.0 (X11; Linux x86_64) AppleWebKit/537.36 (KHTML, like Gecko) Chrome/85.0.4183.121 Safari/537.36",77,"[0.9, 0.5, 0.1]","[0.8, 0.4, 0.2]","[u'blue', u'black', u'red']","[u'left', u'middle', u'right']","[0.9, 0.5, 0.1]","[u'high', u'medium', u'low']","blue",49,"left","high","True","False",370,4550,NA
"A2OA3ZDP0Y3Q9U","Sat Oct 03 2020 16:26:59 GMT-0500 (Central Daylight Time)","Sat Oct 03 2020 16:36:20 GMT-0500 (Central Daylight Time)","Mozilla/5.0 (X11; Linux x86_64) AppleWebKit/537.36 (KHTML, like Gecko) Chrome/85.0.4183.121 Safari/537.36",78,"[0.9, 0.5, 0.1]","[0.8, 0.4, 0.2]","[u'blue', u'black', u'red']","[u'left', u'middle', u'right']","[0.9, 0.5, 0.1]","[u'high', u'medium', u'low']","blue",49,"left","high","True","False",355,4650,NA
"A2OA3ZDP0Y3Q9U","Sat Oct 03 2020 16:26:59 GMT-0500 (Central Daylight Time)","Sat Oct 03 2020 16:36:20 GMT-0500 (Central Daylight Time)","Mozilla/5.0 (X11; Linux x86_64) AppleWebKit/537.36 (KHTML, like Gecko) Chrome/85.0.4183.121 Safari/537.36",79,"[0.9, 0.5, 0.1]","[0.8, 0.4, 0.2]","[u'blue', u'black', u'red']","[u'left', u'middle', u'right']","[0.9, 0.5, 0.1]","[u'high', u'medium', u'low']","blue",49,"left","high","False","False",355,4600,NA
"A2OA3ZDP0Y3Q9U","Sat Oct 03 2020 16:26:59 GMT-0500 (Central Daylight Time)","Sat Oct 03 2020 16:36:20 GMT-0500 (Central Daylight Time)","Mozilla/5.0 (X11; Linux x86_64) AppleWebKit/537.36 (KHTML, like Gecko) Chrome/85.0.4183.121 Safari/537.36",80,"[0.9, 0.5, 0.1]","[0.8, 0.4, 0.2]","[u'blue', u'black', u'red']","[u'left', u'middle', u'right']","[0.9, 0.5, 0.1]","[u'high', u'medium', u'low']","red",51,"right","low","True","False",316,4700,NA
"A2OA3ZDP0Y3Q9U","Sat Oct 03 2020 16:26:59 GMT-0500 (Central Daylight Time)","Sat Oct 03 2020 16:36:20 GMT-0500 (Central Daylight Time)","Mozilla/5.0 (X11; Linux x86_64) AppleWebKit/537.36 (KHTML, like Gecko) Chrome/85.0.4183.121 Safari/537.36",81,"[0.9, 0.5, 0.1]","[0.8, 0.4, 0.2]","[u'blue', u'black', u'red']","[u'left', u'middle', u'right']","[0.8, 0.4, 0.2]","[u'low', u'medium', u'high']","blue",49,"left","low","False","False",778,4650,NA
"A2OA3ZDP0Y3Q9U","Sat Oct 03 2020 16:26:59 GMT-0500 (Central Daylight Time)","Sat Oct 03 2020 16:36:20 GMT-0500 (Central Daylight Time)","Mozilla/5.0 (X11; Linux x86_64) AppleWebKit/537.36 (KHTML, like Gecko) Chrome/85.0.4183.121 Safari/537.36",82,"[0.9, 0.5, 0.1]","[0.8, 0.4, 0.2]","[u'blue', u'black', u'red']","[u'left', u'middle', u'right']","[0.8, 0.4, 0.2]","[u'low', u'medium', u'high']","red",51,"right","high","True","False",555,4750,NA
"A2OA3ZDP0Y3Q9U","Sat Oct 03 2020 16:26:59 GMT-0500 (Central Daylight Time)","Sat Oct 03 2020 16:36:20 GMT-0500 (Central Daylight Time)","Mozilla/5.0 (X11; Linux x86_64) AppleWebKit/537.36 (KHTML, like Gecko) Chrome/85.0.4183.121 Safari/537.36",83,"[0.9, 0.5, 0.1]","[0.8, 0.4, 0.2]","[u'blue', u'black', u'red']","[u'left', u'middle', u'right']","[0.8, 0.4, 0.2]","[u'low', u'medium', u'high']","red",51,"right","high","False","False",315,4700,NA
"A2OA3ZDP0Y3Q9U","Sat Oct 03 2020 16:26:59 GMT-0500 (Central Daylight Time)","Sat Oct 03 2020 16:36:20 GMT-0500 (Central Daylight Time)","Mozilla/5.0 (X11; Linux x86_64) AppleWebKit/537.36 (KHTML, like Gecko) Chrome/85.0.4183.121 Safari/537.36",84,"[0.9, 0.5, 0.1]","[0.8, 0.4, 0.2]","[u'blue', u'black', u'red']","[u'left', u'middle', u'right']","[0.8, 0.4, 0.2]","[u'low', u'medium', u'high']","black",50,"middle","medium","False","False",995,4650,NA
"A2OA3ZDP0Y3Q9U","Sat Oct 03 2020 16:26:59 GMT-0500 (Central Daylight Time)","Sat Oct 03 2020 16:36:20 GMT-0500 (Central Daylight Time)","Mozilla/5.0 (X11; Linux x86_64) AppleWebKit/537.36 (KHTML, like Gecko) Chrome/85.0.4183.121 Safari/537.36",85,"[0.9, 0.5, 0.1]","[0.8, 0.4, 0.2]","[u'blue', u'black', u'red']","[u'left', u'middle', u'right']","[0.8, 0.4, 0.2]","[u'low', u'medium', u'high']","blue",49,"left","low","False","False",275,4600,NA
"A2OA3ZDP0Y3Q9U","Sat Oct 03 2020 16:26:59 GMT-0500 (Central Daylight Time)","Sat Oct 03 2020 16:36:20 GMT-0500 (Central Daylight Time)","Mozilla/5.0 (X11; Linux x86_64) AppleWebKit/537.36 (KHTML, like Gecko) Chrome/85.0.4183.121 Safari/537.36",86,"[0.9, 0.5, 0.1]","[0.8, 0.4, 0.2]","[u'blue', u'black', u'red']","[u'left', u'middle', u'right']","[0.8, 0.4, 0.2]","[u'low', u'medium', u'high']","red",51,"right","high","True","False",379,4700,NA
"A2OA3ZDP0Y3Q9U","Sat Oct 03 2020 16:26:59 GMT-0500 (Central Daylight Time)","Sat Oct 03 2020 16:36:20 GMT-0500 (Central Daylight Time)","Mozilla/5.0 (X11; Linux x86_64) AppleWebKit/537.36 (KHTML, like Gecko) Chrome/85.0.4183.121 Safari/537.36",87,"[0.9, 0.5, 0.1]","[0.8, 0.4, 0.2]","[u'blue', u'black', u'red']","[u'left', u'middle', u'right']","[0.8, 0.4, 0.2]","[u'low', u'medium', u'high']","red",51,"right","high","True","False",323,4800,NA
"A2OA3ZDP0Y3Q9U","Sat Oct 03 2020 16:26:59 GMT-0500 (Central Daylight Time)","Sat Oct 03 2020 16:36:20 GMT-0500 (Central Daylight Time)","Mozilla/5.0 (X11; Linux x86_64) AppleWebKit/537.36 (KHTML, like Gecko) Chrome/85.0.4183.121 Safari/537.36",88,"[0.9, 0.5, 0.1]","[0.8, 0.4, 0.2]","[u'blue', u'black', u'red']","[u'left', u'middle', u'right']","[0.8, 0.4, 0.2]","[u'low', u'medium', u'high']","red",51,"right","high","True","False",507,4900,NA
"A2OA3ZDP0Y3Q9U","Sat Oct 03 2020 16:26:59 GMT-0500 (Central Daylight Time)","Sat Oct 03 2020 16:36:20 GMT-0500 (Central Daylight Time)","Mozilla/5.0 (X11; Linux x86_64) AppleWebKit/537.36 (KHTML, like Gecko) Chrome/85.0.4183.121 Safari/537.36",89,"[0.9, 0.5, 0.1]","[0.8, 0.4, 0.2]","[u'blue', u'black', u'red']","[u'left', u'middle', u'right']","[0.8, 0.4, 0.2]","[u'low', u'medium', u'high']","red",51,"right","high","True","False",587,5000,NA
"A2OA3ZDP0Y3Q9U","Sat Oct 03 2020 16:26:59 GMT-0500 (Central Daylight Time)","Sat Oct 03 2020 16:36:20 GMT-0500 (Central Daylight Time)","Mozilla/5.0 (X11; Linux x86_64) AppleWebKit/537.36 (KHTML, like Gecko) Chrome/85.0.4183.121 Safari/537.36",90,"[0.9, 0.5, 0.1]","[0.8, 0.4, 0.2]","[u'blue', u'black', u'red']","[u'left', u'middle', u'right']","[0.8, 0.4, 0.2]","[u'low', u'medium', u'high']","red",51,"right","high","False","False",412,4950,NA
"A2OA3ZDP0Y3Q9U","Sat Oct 03 2020 16:26:59 GMT-0500 (Central Daylight Time)","Sat Oct 03 2020 16:36:20 GMT-0500 (Central Daylight Time)","Mozilla/5.0 (X11; Linux x86_64) AppleWebKit/537.36 (KHTML, like Gecko) Chrome/85.0.4183.121 Safari/537.36",91,"[0.9, 0.5, 0.1]","[0.8, 0.4, 0.2]","[u'blue', u'black', u'red']","[u'left', u'middle', u'right']","[0.8, 0.4, 0.2]","[u'low', u'medium', u'high']","red",51,"right","high","True","False",299,5050,NA
"A2OA3ZDP0Y3Q9U","Sat Oct 03 2020 16:26:59 GMT-0500 (Central Daylight Time)","Sat Oct 03 2020 16:36:20 GMT-0500 (Central Daylight Time)","Mozilla/5.0 (X11; Linux x86_64) AppleWebKit/537.36 (KHTML, like Gecko) Chrome/85.0.4183.121 Safari/537.36",92,"[0.9, 0.5, 0.1]","[0.8, 0.4, 0.2]","[u'blue', u'black', u'red']","[u'left', u'middle', u'right']","[0.8, 0.4, 0.2]","[u'low', u'medium', u'high']","red",51,"right","high","True","False",428,5150,NA
"A2OA3ZDP0Y3Q9U","Sat Oct 03 2020 16:26:59 GMT-0500 (Central Daylight Time)","Sat Oct 03 2020 16:36:20 GMT-0500 (Central Daylight Time)","Mozilla/5.0 (X11; Linux x86_64) AppleWebKit/537.36 (KHTML, like Gecko) Chrome/85.0.4183.121 Safari/537.36",93,"[0.9, 0.5, 0.1]","[0.8, 0.4, 0.2]","[u'blue', u'black', u'red']","[u'left', u'middle', u'right']","[0.8, 0.4, 0.2]","[u'low', u'medium', u'high']","red",51,"right","high","True","False",546,5250,NA
"A2OA3ZDP0Y3Q9U","Sat Oct 03 2020 16:26:59 GMT-0500 (Central Daylight Time)","Sat Oct 03 2020 16:36:20 GMT-0500 (Central Daylight Time)","Mozilla/5.0 (X11; Linux x86_64) AppleWebKit/537.36 (KHTML, like Gecko) Chrome/85.0.4183.121 Safari/537.36",94,"[0.9, 0.5, 0.1]","[0.8, 0.4, 0.2]","[u'blue', u'black', u'red']","[u'left', u'middle', u'right']","[0.8, 0.4, 0.2]","[u'low', u'medium', u'high']","red",51,"right","high","True","True",523,5350,NA
"A2OA3ZDP0Y3Q9U","Sat Oct 03 2020 16:26:59 GMT-0500 (Central Daylight Time)","Sat Oct 03 2020 16:36:20 GMT-0500 (Central Daylight Time)","Mozilla/5.0 (X11; Linux x86_64) AppleWebKit/537.36 (KHTML, like Gecko) Chrome/85.0.4183.121 Safari/537.36",95,"[0.9, 0.5, 0.1]","[0.8, 0.4, 0.2]","[u'blue', u'black', u'red']","[u'left', u'middle', u'right']","[0.8, 0.4, 0.2]","[u'low', u'high', u'medium']","red",51,"right","medium","False","False",524,5300,NA
"A2OA3ZDP0Y3Q9U","Sat Oct 03 2020 16:26:59 GMT-0500 (Central Daylight Time)","Sat Oct 03 2020 16:36:20 GMT-0500 (Central Daylight Time)","Mozilla/5.0 (X11; Linux x86_64) AppleWebKit/537.36 (KHTML, like Gecko) Chrome/85.0.4183.121 Safari/537.36",96,"[0.9, 0.5, 0.1]","[0.8, 0.4, 0.2]","[u'blue', u'black', u'red']","[u'left', u'middle', u'right']","[0.8, 0.4, 0.2]","[u'low', u'high', u'medium']","red",51,"right","medium","False","False",307,5250,NA
"A2OA3ZDP0Y3Q9U","Sat Oct 03 2020 16:26:59 GMT-0500 (Central Daylight Time)","Sat Oct 03 2020 16:36:20 GMT-0500 (Central Daylight Time)","Mozilla/5.0 (X11; Linux x86_64) AppleWebKit/537.36 (KHTML, like Gecko) Chrome/85.0.4183.121 Safari/537.36",97,"[0.9, 0.5, 0.1]","[0.8, 0.4, 0.2]","[u'blue', u'black', u'red']","[u'left', u'middle', u'right']","[0.8, 0.4, 0.2]","[u'low', u'high', u'medium']","black",50,"middle","high","True","False",315,5350,NA
"A2OA3ZDP0Y3Q9U","Sat Oct 03 2020 16:26:59 GMT-0500 (Central Daylight Time)","Sat Oct 03 2020 16:36:20 GMT-0500 (Central Daylight Time)","Mozilla/5.0 (X11; Linux x86_64) AppleWebKit/537.36 (KHTML, like Gecko) Chrome/85.0.4183.121 Safari/537.36",98,"[0.9, 0.5, 0.1]","[0.8, 0.4, 0.2]","[u'blue', u'black', u'red']","[u'left', u'middle', u'right']","[0.8, 0.4, 0.2]","[u'low', u'high', u'medium']","black",50,"middle","high","True","False",316,5450,NA
"A2OA3ZDP0Y3Q9U","Sat Oct 03 2020 16:26:59 GMT-0500 (Central Daylight Time)","Sat Oct 03 2020 16:36:20 GMT-0500 (Central Daylight Time)","Mozilla/5.0 (X11; Linux x86_64) AppleWebKit/537.36 (KHTML, like Gecko) Chrome/85.0.4183.121 Safari/537.36",99,"[0.9, 0.5, 0.1]","[0.8, 0.4, 0.2]","[u'blue', u'black', u'red']","[u'left', u'middle', u'right']","[0.8, 0.4, 0.2]","[u'low', u'high', u'medium']","black",50,"middle","high","False","False",363,5400,NA
"A2OA3ZDP0Y3Q9U","Sat Oct 03 2020 16:26:59 GMT-0500 (Central Daylight Time)","Sat Oct 03 2020 16:36:20 GMT-0500 (Central Daylight Time)","Mozilla/5.0 (X11; Linux x86_64) AppleWebKit/537.36 (KHTML, like Gecko) Chrome/85.0.4183.121 Safari/537.36",100,"[0.9, 0.5, 0.1]","[0.8, 0.4, 0.2]","[u'blue', u'black', u'red']","[u'left', u'middle', u'right']","[0.8, 0.4, 0.2]","[u'low', u'high', u'medium']","black",50,"middle","high","True","False",651,5500,NA
"A2OA3ZDP0Y3Q9U","Sat Oct 03 2020 16:26:59 GMT-0500 (Central Daylight Time)","Sat Oct 03 2020 16:36:20 GMT-0500 (Central Daylight Time)","Mozilla/5.0 (X11; Linux x86_64) AppleWebKit/537.36 (KHTML, like Gecko) Chrome/85.0.4183.121 Safari/537.36",101,"[0.9, 0.5, 0.1]","[0.8, 0.4, 0.2]","[u'blue', u'black', u'red']","[u'left', u'middle', u'right']","[0.8, 0.4, 0.2]","[u'low', u'high', u'medium']","black",50,"middle","high","True","False",387,5600,NA
"A2OA3ZDP0Y3Q9U","Sat Oct 03 2020 16:26:59 GMT-0500 (Central Daylight Time)","Sat Oct 03 2020 16:36:20 GMT-0500 (Central Daylight Time)","Mozilla/5.0 (X11; Linux x86_64) AppleWebKit/537.36 (KHTML, like Gecko) Chrome/85.0.4183.121 Safari/537.36",102,"[0.9, 0.5, 0.1]","[0.8, 0.4, 0.2]","[u'blue', u'black', u'red']","[u'left', u'middle', u'right']","[0.8, 0.4, 0.2]","[u'low', u'high', u'medium']","black",50,"middle","high","True","False",363,5700,NA
"A2OA3ZDP0Y3Q9U","Sat Oct 03 2020 16:26:59 GMT-0500 (Central Daylight Time)","Sat Oct 03 2020 16:36:20 GMT-0500 (Central Daylight Time)","Mozilla/5.0 (X11; Linux x86_64) AppleWebKit/537.36 (KHTML, like Gecko) Chrome/85.0.4183.121 Safari/537.36",103,"[0.9, 0.5, 0.1]","[0.8, 0.4, 0.2]","[u'blue', u'black', u'red']","[u'left', u'middle', u'right']","[0.8, 0.4, 0.2]","[u'low', u'high', u'medium']","black",50,"middle","high","True","False",468,5800,NA
"A2OA3ZDP0Y3Q9U","Sat Oct 03 2020 16:26:59 GMT-0500 (Central Daylight Time)","Sat Oct 03 2020 16:36:20 GMT-0500 (Central Daylight Time)","Mozilla/5.0 (X11; Linux x86_64) AppleWebKit/537.36 (KHTML, like Gecko) Chrome/85.0.4183.121 Safari/537.36",104,"[0.9, 0.5, 0.1]","[0.8, 0.4, 0.2]","[u'blue', u'black', u'red']","[u'left', u'middle', u'right']","[0.8, 0.4, 0.2]","[u'low', u'high', u'medium']","black",50,"middle","high","False","False",436,5750,NA
"A2OA3ZDP0Y3Q9U","Sat Oct 03 2020 16:26:59 GMT-0500 (Central Daylight Time)","Sat Oct 03 2020 16:36:20 GMT-0500 (Central Daylight Time)","Mozilla/5.0 (X11; Linux x86_64) AppleWebKit/537.36 (KHTML, like Gecko) Chrome/85.0.4183.121 Safari/537.36",105,"[0.9, 0.5, 0.1]","[0.8, 0.4, 0.2]","[u'blue', u'black', u'red']","[u'left', u'middle', u'right']","[0.8, 0.4, 0.2]","[u'low', u'high', u'medium']","black",50,"middle","high","True","True",371,5850,NA
"A2OA3ZDP0Y3Q9U","Sat Oct 03 2020 16:26:59 GMT-0500 (Central Daylight Time)","Sat Oct 03 2020 16:36:20 GMT-0500 (Central Daylight Time)","Mozilla/5.0 (X11; Linux x86_64) AppleWebKit/537.36 (KHTML, like Gecko) Chrome/85.0.4183.121 Safari/537.36",106,"[0.9, 0.5, 0.1]","[0.8, 0.4, 0.2]","[u'blue', u'black', u'red']","[u'left', u'middle', u'right']","[0.8, 0.4, 0.2]","[u'high', u'medium', u'low']","black",50,"middle","medium","False","False",370,5800,NA
"A2OA3ZDP0Y3Q9U","Sat Oct 03 2020 16:26:59 GMT-0500 (Central Daylight Time)","Sat Oct 03 2020 16:36:20 GMT-0500 (Central Daylight Time)","Mozilla/5.0 (X11; Linux x86_64) AppleWebKit/537.36 (KHTML, like Gecko) Chrome/85.0.4183.121 Safari/537.36",107,"[0.9, 0.5, 0.1]","[0.8, 0.4, 0.2]","[u'blue', u'black', u'red']","[u'left', u'middle', u'right']","[0.8, 0.4, 0.2]","[u'high', u'medium', u'low']","black",50,"middle","medium","False","False",387,5750,NA
"A2OA3ZDP0Y3Q9U","Sat Oct 03 2020 16:26:59 GMT-0500 (Central Daylight Time)","Sat Oct 03 2020 16:36:20 GMT-0500 (Central Daylight Time)","Mozilla/5.0 (X11; Linux x86_64) AppleWebKit/537.36 (KHTML, like Gecko) Chrome/85.0.4183.121 Safari/537.36",108,"[0.9, 0.5, 0.1]","[0.8, 0.4, 0.2]","[u'blue', u'black', u'red']","[u'left', u'middle', u'right']","[0.8, 0.4, 0.2]","[u'high', u'medium', u'low']","blue",49,"left","high","True","False",260,5850,NA
"A2OA3ZDP0Y3Q9U","Sat Oct 03 2020 16:26:59 GMT-0500 (Central Daylight Time)","Sat Oct 03 2020 16:36:20 GMT-0500 (Central Daylight Time)","Mozilla/5.0 (X11; Linux x86_64) AppleWebKit/537.36 (KHTML, like Gecko) Chrome/85.0.4183.121 Safari/537.36",109,"[0.9, 0.5, 0.1]","[0.8, 0.4, 0.2]","[u'blue', u'black', u'red']","[u'left', u'middle', u'right']","[0.8, 0.4, 0.2]","[u'high', u'medium', u'low']","blue",49,"left","high","True","False",291,5950,NA
"A2OA3ZDP0Y3Q9U","Sat Oct 03 2020 16:26:59 GMT-0500 (Central Daylight Time)","Sat Oct 03 2020 16:36:20 GMT-0500 (Central Daylight Time)","Mozilla/5.0 (X11; Linux x86_64) AppleWebKit/537.36 (KHTML, like Gecko) Chrome/85.0.4183.121 Safari/537.36",110,"[0.9, 0.5, 0.1]","[0.8, 0.4, 0.2]","[u'blue', u'black', u'red']","[u'left', u'middle', u'right']","[0.8, 0.4, 0.2]","[u'high', u'medium', u'low']","blue",49,"left","high","True","False",403,6050,NA
"A2OA3ZDP0Y3Q9U","Sat Oct 03 2020 16:26:59 GMT-0500 (Central Daylight Time)","Sat Oct 03 2020 16:36:20 GMT-0500 (Central Daylight Time)","Mozilla/5.0 (X11; Linux x86_64) AppleWebKit/537.36 (KHTML, like Gecko) Chrome/85.0.4183.121 Safari/537.36",111,"[0.9, 0.5, 0.1]","[0.8, 0.4, 0.2]","[u'blue', u'black', u'red']","[u'left', u'middle', u'right']","[0.8, 0.4, 0.2]","[u'high', u'medium', u'low']","blue",49,"left","high","True","False",363,6150,NA
"A2OA3ZDP0Y3Q9U","Sat Oct 03 2020 16:26:59 GMT-0500 (Central Daylight Time)","Sat Oct 03 2020 16:36:20 GMT-0500 (Central Daylight Time)","Mozilla/5.0 (X11; Linux x86_64) AppleWebKit/537.36 (KHTML, like Gecko) Chrome/85.0.4183.121 Safari/537.36",112,"[0.9, 0.5, 0.1]","[0.8, 0.4, 0.2]","[u'blue', u'black', u'red']","[u'left', u'middle', u'right']","[0.8, 0.4, 0.2]","[u'high', u'medium', u'low']","blue",49,"left","high","True","False",676,6250,NA
"A2OA3ZDP0Y3Q9U","Sat Oct 03 2020 16:26:59 GMT-0500 (Central Daylight Time)","Sat Oct 03 2020 16:36:20 GMT-0500 (Central Daylight Time)","Mozilla/5.0 (X11; Linux x86_64) AppleWebKit/537.36 (KHTML, like Gecko) Chrome/85.0.4183.121 Safari/537.36",113,"[0.9, 0.5, 0.1]","[0.8, 0.4, 0.2]","[u'blue', u'black', u'red']","[u'left', u'middle', u'right']","[0.8, 0.4, 0.2]","[u'high', u'medium', u'low']","blue",49,"left","high","True","False",435,6350,NA
"A2OA3ZDP0Y3Q9U","Sat Oct 03 2020 16:26:59 GMT-0500 (Central Daylight Time)","Sat Oct 03 2020 16:36:20 GMT-0500 (Central Daylight Time)","Mozilla/5.0 (X11; Linux x86_64) AppleWebKit/537.36 (KHTML, like Gecko) Chrome/85.0.4183.121 Safari/537.36",114,"[0.9, 0.5, 0.1]","[0.8, 0.4, 0.2]","[u'blue', u'black', u'red']","[u'left', u'middle', u'right']","[0.8, 0.4, 0.2]","[u'high', u'medium', u'low']","blue",49,"left","high","True","False",339,6450,NA
"A2OA3ZDP0Y3Q9U","Sat Oct 03 2020 16:26:59 GMT-0500 (Central Daylight Time)","Sat Oct 03 2020 16:36:20 GMT-0500 (Central Daylight Time)","Mozilla/5.0 (X11; Linux x86_64) AppleWebKit/537.36 (KHTML, like Gecko) Chrome/85.0.4183.121 Safari/537.36",115,"[0.9, 0.5, 0.1]","[0.8, 0.4, 0.2]","[u'blue', u'black', u'red']","[u'left', u'middle', u'right']","[0.8, 0.4, 0.2]","[u'high', u'medium', u'low']","blue",49,"left","high","True","False",323,6550,NA
"A2OA3ZDP0Y3Q9U","Sat Oct 03 2020 16:26:59 GMT-0500 (Central Daylight Time)","Sat Oct 03 2020 16:36:20 GMT-0500 (Central Daylight Time)","Mozilla/5.0 (X11; Linux x86_64) AppleWebKit/537.36 (KHTML, like Gecko) Chrome/85.0.4183.121 Safari/537.36",116,"[0.9, 0.5, 0.1]","[0.8, 0.4, 0.2]","[u'blue', u'black', u'red']","[u'left', u'middle', u'right']","[0.8, 0.4, 0.2]","[u'high', u'medium', u'low']","blue",49,"left","high","True","True",396,6650,NA
"A2OA3ZDP0Y3Q9U","Sat Oct 03 2020 16:26:59 GMT-0500 (Central Daylight Time)","Sat Oct 03 2020 16:36:20 GMT-0500 (Central Daylight Time)","Mozilla/5.0 (X11; Linux x86_64) AppleWebKit/537.36 (KHTML, like Gecko) Chrome/85.0.4183.121 Safari/537.36",117,"[0.9, 0.5, 0.1]","[0.8, 0.4, 0.2]","[u'blue', u'black', u'red']","[u'left', u'middle', u'right']","[0.8, 0.4, 0.2]","[u'medium', u'high', u'low']","blue",49,"left","medium","False","False",476,6600,NA
"A2OA3ZDP0Y3Q9U","Sat Oct 03 2020 16:26:59 GMT-0500 (Central Daylight Time)","Sat Oct 03 2020 16:36:20 GMT-0500 (Central Daylight Time)","Mozilla/5.0 (X11; Linux x86_64) AppleWebKit/537.36 (KHTML, like Gecko) Chrome/85.0.4183.121 Safari/537.36",118,"[0.9, 0.5, 0.1]","[0.8, 0.4, 0.2]","[u'blue', u'black', u'red']","[u'left', u'middle', u'right']","[0.8, 0.4, 0.2]","[u'medium', u'high', u'low']","blue",49,"left","medium","False","False",317,6550,NA
"A2OA3ZDP0Y3Q9U","Sat Oct 03 2020 16:26:59 GMT-0500 (Central Daylight Time)","Sat Oct 03 2020 16:36:20 GMT-0500 (Central Daylight Time)","Mozilla/5.0 (X11; Linux x86_64) AppleWebKit/537.36 (KHTML, like Gecko) Chrome/85.0.4183.121 Safari/537.36",119,"[0.9, 0.5, 0.1]","[0.8, 0.4, 0.2]","[u'blue', u'black', u'red']","[u'left', u'middle', u'right']","[0.8, 0.4, 0.2]","[u'medium', u'high', u'low']","red",51,"right","low","False","False",506,6500,NA
"A2OA3ZDP0Y3Q9U","Sat Oct 03 2020 16:26:59 GMT-0500 (Central Daylight Time)","Sat Oct 03 2020 16:36:20 GMT-0500 (Central Daylight Time)","Mozilla/5.0 (X11; Linux x86_64) AppleWebKit/537.36 (KHTML, like Gecko) Chrome/85.0.4183.121 Safari/537.36",120,"[0.9, 0.5, 0.1]","[0.8, 0.4, 0.2]","[u'blue', u'black', u'red']","[u'left', u'middle', u'right']","[0.8, 0.4, 0.2]","[u'medium', u'high', u'low']","black",50,"middle","high","True","False",667,6600,NA
"A2OA3ZDP0Y3Q9U","Sat Oct 03 2020 16:26:59 GMT-0500 (Central Daylight Time)","Sat Oct 03 2020 16:36:20 GMT-0500 (Central Daylight Time)","Mozilla/5.0 (X11; Linux x86_64) AppleWebKit/537.36 (KHTML, like Gecko) Chrome/85.0.4183.121 Safari/537.36",121,"[0.9, 0.5, 0.1]","[0.8, 0.4, 0.2]","[u'blue', u'black', u'red']","[u'left', u'middle', u'right']","[0.8, 0.4, 0.2]","[u'high', u'medium', u'low']","black",50,"middle","medium","False","False",1219,6550,NA
"A2OA3ZDP0Y3Q9U","Sat Oct 03 2020 16:26:59 GMT-0500 (Central Daylight Time)","Sat Oct 03 2020 16:36:20 GMT-0500 (Central Daylight Time)","Mozilla/5.0 (X11; Linux x86_64) AppleWebKit/537.36 (KHTML, like Gecko) Chrome/85.0.4183.121 Safari/537.36",122,"[0.9, 0.5, 0.1]","[0.8, 0.4, 0.2]","[u'blue', u'black', u'red']","[u'left', u'middle', u'right']","[0.8, 0.4, 0.2]","[u'high', u'medium', u'low']","blue",49,"left","high","True","False",404,6650,NA
"A2OA3ZDP0Y3Q9U","Sat Oct 03 2020 16:26:59 GMT-0500 (Central Daylight Time)","Sat Oct 03 2020 16:36:20 GMT-0500 (Central Daylight Time)","Mozilla/5.0 (X11; Linux x86_64) AppleWebKit/537.36 (KHTML, like Gecko) Chrome/85.0.4183.121 Safari/537.36",123,"[0.9, 0.5, 0.1]","[0.8, 0.4, 0.2]","[u'blue', u'black', u'red']","[u'left', u'middle', u'right']","[0.8, 0.4, 0.2]","[u'high', u'medium', u'low']","blue",49,"left","high","True","False",322,6750,NA
"A2OA3ZDP0Y3Q9U","Sat Oct 03 2020 16:26:59 GMT-0500 (Central Daylight Time)","Sat Oct 03 2020 16:36:20 GMT-0500 (Central Daylight Time)","Mozilla/5.0 (X11; Linux x86_64) AppleWebKit/537.36 (KHTML, like Gecko) Chrome/85.0.4183.121 Safari/537.36",124,"[0.9, 0.5, 0.1]","[0.8, 0.4, 0.2]","[u'blue', u'black', u'red']","[u'left', u'middle', u'right']","[0.8, 0.4, 0.2]","[u'high', u'medium', u'low']","blue",49,"left","high","True","False",364,6850,NA
"A2OA3ZDP0Y3Q9U","Sat Oct 03 2020 16:26:59 GMT-0500 (Central Daylight Time)","Sat Oct 03 2020 16:36:20 GMT-0500 (Central Daylight Time)","Mozilla/5.0 (X11; Linux x86_64) AppleWebKit/537.36 (KHTML, like Gecko) Chrome/85.0.4183.121 Safari/537.36",125,"[0.9, 0.5, 0.1]","[0.8, 0.4, 0.2]","[u'blue', u'black', u'red']","[u'left', u'middle', u'right']","[0.8, 0.4, 0.2]","[u'high', u'medium', u'low']","blue",49,"left","high","True","False",572,6950,NA
"A2OA3ZDP0Y3Q9U","Sat Oct 03 2020 16:26:59 GMT-0500 (Central Daylight Time)","Sat Oct 03 2020 16:36:20 GMT-0500 (Central Daylight Time)","Mozilla/5.0 (X11; Linux x86_64) AppleWebKit/537.36 (KHTML, like Gecko) Chrome/85.0.4183.121 Safari/537.36",126,"[0.9, 0.5, 0.1]","[0.8, 0.4, 0.2]","[u'blue', u'black', u'red']","[u'left', u'middle', u'right']","[0.8, 0.4, 0.2]","[u'high', u'medium', u'low']","blue",49,"left","high","True","False",372,7050,NA
"A2OA3ZDP0Y3Q9U","Sat Oct 03 2020 16:26:59 GMT-0500 (Central Daylight Time)","Sat Oct 03 2020 16:36:20 GMT-0500 (Central Daylight Time)","Mozilla/5.0 (X11; Linux x86_64) AppleWebKit/537.36 (KHTML, like Gecko) Chrome/85.0.4183.121 Safari/537.36",127,"[0.9, 0.5, 0.1]","[0.8, 0.4, 0.2]","[u'blue', u'black', u'red']","[u'left', u'middle', u'right']","[0.8, 0.4, 0.2]","[u'high', u'medium', u'low']","blue",49,"left","high","True","False",410,7150,NA
"A2OA3ZDP0Y3Q9U","Sat Oct 03 2020 16:26:59 GMT-0500 (Central Daylight Time)","Sat Oct 03 2020 16:36:20 GMT-0500 (Central Daylight Time)","Mozilla/5.0 (X11; Linux x86_64) AppleWebKit/537.36 (KHTML, like Gecko) Chrome/85.0.4183.121 Safari/537.36",128,"[0.9, 0.5, 0.1]","[0.8, 0.4, 0.2]","[u'blue', u'black', u'red']","[u'left', u'middle', u'right']","[0.8, 0.4, 0.2]","[u'high', u'medium', u'low']","blue",49,"left","high","True","False",411,7250,NA
"A2OA3ZDP0Y3Q9U","Sat Oct 03 2020 16:26:59 GMT-0500 (Central Daylight Time)","Sat Oct 03 2020 16:36:20 GMT-0500 (Central Daylight Time)","Mozilla/5.0 (X11; Linux x86_64) AppleWebKit/537.36 (KHTML, like Gecko) Chrome/85.0.4183.121 Safari/537.36",129,"[0.9, 0.5, 0.1]","[0.8, 0.4, 0.2]","[u'blue', u'black', u'red']","[u'left', u'middle', u'right']","[0.8, 0.4, 0.2]","[u'high', u'medium', u'low']","blue",49,"left","high","True","False",468,7350,NA
"A2OA3ZDP0Y3Q9U","Sat Oct 03 2020 16:26:59 GMT-0500 (Central Daylight Time)","Sat Oct 03 2020 16:36:20 GMT-0500 (Central Daylight Time)","Mozilla/5.0 (X11; Linux x86_64) AppleWebKit/537.36 (KHTML, like Gecko) Chrome/85.0.4183.121 Safari/537.36",130,"[0.9, 0.5, 0.1]","[0.8, 0.4, 0.2]","[u'blue', u'black', u'red']","[u'left', u'middle', u'right']","[0.8, 0.4, 0.2]","[u'high', u'medium', u'low']","blue",49,"left","high","True","True",531,7450,NA
"A2OA3ZDP0Y3Q9U","Sat Oct 03 2020 16:26:59 GMT-0500 (Central Daylight Time)","Sat Oct 03 2020 16:36:20 GMT-0500 (Central Daylight Time)","Mozilla/5.0 (X11; Linux x86_64) AppleWebKit/537.36 (KHTML, like Gecko) Chrome/85.0.4183.121 Safari/537.36",131,"[0.9, 0.5, 0.1]","[0.8, 0.4, 0.2]","[u'blue', u'black', u'red']","[u'left', u'middle', u'right']","[0.8, 0.4, 0.2]","[u'low', u'medium', u'high']","blue",49,"left","low","False","False",755,7400,NA
"A2OA3ZDP0Y3Q9U","Sat Oct 03 2020 16:26:59 GMT-0500 (Central Daylight Time)","Sat Oct 03 2020 16:36:20 GMT-0500 (Central Daylight Time)","Mozilla/5.0 (X11; Linux x86_64) AppleWebKit/537.36 (KHTML, like Gecko) Chrome/85.0.4183.121 Safari/537.36",132,"[0.9, 0.5, 0.1]","[0.8, 0.4, 0.2]","[u'blue', u'black', u'red']","[u'left', u'middle', u'right']","[0.8, 0.4, 0.2]","[u'low', u'medium', u'high']","red",51,"right","high","False","False",315,7350,NA
"A2OA3ZDP0Y3Q9U","Sat Oct 03 2020 16:26:59 GMT-0500 (Central Daylight Time)","Sat Oct 03 2020 16:36:20 GMT-0500 (Central Daylight Time)","Mozilla/5.0 (X11; Linux x86_64) AppleWebKit/537.36 (KHTML, like Gecko) Chrome/85.0.4183.121 Safari/537.36",133,"[0.9, 0.5, 0.1]","[0.8, 0.4, 0.2]","[u'blue', u'black', u'red']","[u'left', u'middle', u'right']","[0.8, 0.4, 0.2]","[u'low', u'medium', u'high']","black",50,"middle","medium","False","False",308,7300,NA
"A2OA3ZDP0Y3Q9U","Sat Oct 03 2020 16:26:59 GMT-0500 (Central Daylight Time)","Sat Oct 03 2020 16:36:20 GMT-0500 (Central Daylight Time)","Mozilla/5.0 (X11; Linux x86_64) AppleWebKit/537.36 (KHTML, like Gecko) Chrome/85.0.4183.121 Safari/537.36",134,"[0.9, 0.5, 0.1]","[0.8, 0.4, 0.2]","[u'blue', u'black', u'red']","[u'left', u'middle', u'right']","[0.8, 0.4, 0.2]","[u'low', u'medium', u'high']","blue",49,"left","low","True","False",274,7400,NA
"A2OA3ZDP0Y3Q9U","Sat Oct 03 2020 16:26:59 GMT-0500 (Central Daylight Time)","Sat Oct 03 2020 16:36:20 GMT-0500 (Central Daylight Time)","Mozilla/5.0 (X11; Linux x86_64) AppleWebKit/537.36 (KHTML, like Gecko) Chrome/85.0.4183.121 Safari/537.36",135,"[0.9, 0.5, 0.1]","[0.8, 0.4, 0.2]","[u'blue', u'black', u'red']","[u'left', u'middle', u'right']","[0.8, 0.4, 0.2]","[u'low', u'medium', u'high']","blue",49,"left","low","False","False",307,7350,NA
"A2OA3ZDP0Y3Q9U","Sat Oct 03 2020 16:26:59 GMT-0500 (Central Daylight Time)","Sat Oct 03 2020 16:36:20 GMT-0500 (Central Daylight Time)","Mozilla/5.0 (X11; Linux x86_64) AppleWebKit/537.36 (KHTML, like Gecko) Chrome/85.0.4183.121 Safari/537.36",136,"[0.9, 0.5, 0.1]","[0.8, 0.4, 0.2]","[u'blue', u'black', u'red']","[u'left', u'middle', u'right']","[0.8, 0.4, 0.2]","[u'low', u'medium', u'high']","blue",49,"left","low","False","False",307,7300,NA
"A2OA3ZDP0Y3Q9U","Sat Oct 03 2020 16:26:59 GMT-0500 (Central Daylight Time)","Sat Oct 03 2020 16:36:20 GMT-0500 (Central Daylight Time)","Mozilla/5.0 (X11; Linux x86_64) AppleWebKit/537.36 (KHTML, like Gecko) Chrome/85.0.4183.121 Safari/537.36",137,"[0.9, 0.5, 0.1]","[0.8, 0.4, 0.2]","[u'blue', u'black', u'red']","[u'left', u'middle', u'right']","[0.8, 0.4, 0.2]","[u'low', u'medium', u'high']","blue",49,"left","low","False","False",356,7250,NA
"A2OA3ZDP0Y3Q9U","Sat Oct 03 2020 16:26:59 GMT-0500 (Central Daylight Time)","Sat Oct 03 2020 16:36:20 GMT-0500 (Central Daylight Time)","Mozilla/5.0 (X11; Linux x86_64) AppleWebKit/537.36 (KHTML, like Gecko) Chrome/85.0.4183.121 Safari/537.36",138,"[0.9, 0.5, 0.1]","[0.8, 0.4, 0.2]","[u'blue', u'black', u'red']","[u'left', u'middle', u'right']","[0.8, 0.4, 0.2]","[u'low', u'medium', u'high']","black",50,"middle","medium","True","False",259,7350,NA
"A2OA3ZDP0Y3Q9U","Sat Oct 03 2020 16:26:59 GMT-0500 (Central Daylight Time)","Sat Oct 03 2020 16:36:20 GMT-0500 (Central Daylight Time)","Mozilla/5.0 (X11; Linux x86_64) AppleWebKit/537.36 (KHTML, like Gecko) Chrome/85.0.4183.121 Safari/537.36",139,"[0.9, 0.5, 0.1]","[0.8, 0.4, 0.2]","[u'blue', u'black', u'red']","[u'left', u'middle', u'right']","[0.8, 0.4, 0.2]","[u'low', u'medium', u'high']","black",50,"middle","medium","False","False",284,7300,NA
"A2OA3ZDP0Y3Q9U","Sat Oct 03 2020 16:26:59 GMT-0500 (Central Daylight Time)","Sat Oct 03 2020 16:36:20 GMT-0500 (Central Daylight Time)","Mozilla/5.0 (X11; Linux x86_64) AppleWebKit/537.36 (KHTML, like Gecko) Chrome/85.0.4183.121 Safari/537.36",140,"[0.9, 0.5, 0.1]","[0.8, 0.4, 0.2]","[u'blue', u'black', u'red']","[u'left', u'middle', u'right']","[0.8, 0.4, 0.2]","[u'low', u'medium', u'high']","red",51,"right","high","True","False",331,7400,NA
"A2OA3ZDP0Y3Q9U","Sat Oct 03 2020 16:26:59 GMT-0500 (Central Daylight Time)","Sat Oct 03 2020 16:36:20 GMT-0500 (Central Daylight Time)","Mozilla/5.0 (X11; Linux x86_64) AppleWebKit/537.36 (KHTML, like Gecko) Chrome/85.0.4183.121 Safari/537.36",141,"[0.9, 0.5, 0.1]","[0.8, 0.4, 0.2]","[u'blue', u'black', u'red']","[u'left', u'middle', u'right']","[0.8, 0.4, 0.2]","[u'low', u'medium', u'high']","red",51,"right","high","True","False",339,7500,NA
"A2OA3ZDP0Y3Q9U","Sat Oct 03 2020 16:26:59 GMT-0500 (Central Daylight Time)","Sat Oct 03 2020 16:36:20 GMT-0500 (Central Daylight Time)","Mozilla/5.0 (X11; Linux x86_64) AppleWebKit/537.36 (KHTML, like Gecko) Chrome/85.0.4183.121 Safari/537.36",142,"[0.9, 0.5, 0.1]","[0.8, 0.4, 0.2]","[u'blue', u'black', u'red']","[u'left', u'middle', u'right']","[0.8, 0.4, 0.2]","[u'low', u'medium', u'high']","red",51,"right","high","True","False",372,7600,NA
"A2OA3ZDP0Y3Q9U","Sat Oct 03 2020 16:26:59 GMT-0500 (Central Daylight Time)","Sat Oct 03 2020 16:36:20 GMT-0500 (Central Daylight Time)","Mozilla/5.0 (X11; Linux x86_64) AppleWebKit/537.36 (KHTML, like Gecko) Chrome/85.0.4183.121 Safari/537.36",143,"[0.9, 0.5, 0.1]","[0.8, 0.4, 0.2]","[u'blue', u'black', u'red']","[u'left', u'middle', u'right']","[0.8, 0.4, 0.2]","[u'low', u'medium', u'high']","red",51,"right","high","True","False",476,7700,NA
"A2OA3ZDP0Y3Q9U","Sat Oct 03 2020 16:26:59 GMT-0500 (Central Daylight Time)","Sat Oct 03 2020 16:36:20 GMT-0500 (Central Daylight Time)","Mozilla/5.0 (X11; Linux x86_64) AppleWebKit/537.36 (KHTML, like Gecko) Chrome/85.0.4183.121 Safari/537.36",144,"[0.9, 0.5, 0.1]","[0.8, 0.4, 0.2]","[u'blue', u'black', u'red']","[u'left', u'middle', u'right']","[0.8, 0.4, 0.2]","[u'low', u'medium', u'high']","red",51,"right","high","True","False",387,7800,NA
"A2OA3ZDP0Y3Q9U","Sat Oct 03 2020 16:26:59 GMT-0500 (Central Daylight Time)","Sat Oct 03 2020 16:36:20 GMT-0500 (Central Daylight Time)","Mozilla/5.0 (X11; Linux x86_64) AppleWebKit/537.36 (KHTML, like Gecko) Chrome/85.0.4183.121 Safari/537.36",145,"[0.9, 0.5, 0.1]","[0.8, 0.4, 0.2]","[u'blue', u'black', u'red']","[u'left', u'middle', u'right']","[0.8, 0.4, 0.2]","[u'low', u'medium', u'high']","red",51,"right","high","True","False",355,7900,NA
"A2OA3ZDP0Y3Q9U","Sat Oct 03 2020 16:26:59 GMT-0500 (Central Daylight Time)","Sat Oct 03 2020 16:36:20 GMT-0500 (Central Daylight Time)","Mozilla/5.0 (X11; Linux x86_64) AppleWebKit/537.36 (KHTML, like Gecko) Chrome/85.0.4183.121 Safari/537.36",146,"[0.9, 0.5, 0.1]","[0.8, 0.4, 0.2]","[u'blue', u'black', u'red']","[u'left', u'middle', u'right']","[0.8, 0.4, 0.2]","[u'low', u'medium', u'high']","red",51,"right","high","True","False",611,8000,NA
"A2OA3ZDP0Y3Q9U","Sat Oct 03 2020 16:26:59 GMT-0500 (Central Daylight Time)","Sat Oct 03 2020 16:36:20 GMT-0500 (Central Daylight Time)","Mozilla/5.0 (X11; Linux x86_64) AppleWebKit/537.36 (KHTML, like Gecko) Chrome/85.0.4183.121 Safari/537.36",147,"[0.9, 0.5, 0.1]","[0.8, 0.4, 0.2]","[u'blue', u'black', u'red']","[u'left', u'middle', u'right']","[0.8, 0.4, 0.2]","[u'low', u'medium', u'high']","red",51,"right","high","True","False",395,8100,NA
"A2OA3ZDP0Y3Q9U","Sat Oct 03 2020 16:26:59 GMT-0500 (Central Daylight Time)","Sat Oct 03 2020 16:36:20 GMT-0500 (Central Daylight Time)","Mozilla/5.0 (X11; Linux x86_64) AppleWebKit/537.36 (KHTML, like Gecko) Chrome/85.0.4183.121 Safari/537.36",148,"[0.9, 0.5, 0.1]","[0.8, 0.4, 0.2]","[u'blue', u'black', u'red']","[u'left', u'middle', u'right']","[0.8, 0.4, 0.2]","[u'low', u'medium', u'high']","red",51,"right","high","True","True",348,8200,NA
"A2OA3ZDP0Y3Q9U","Sat Oct 03 2020 16:26:59 GMT-0500 (Central Daylight Time)","Sat Oct 03 2020 16:36:20 GMT-0500 (Central Daylight Time)","Mozilla/5.0 (X11; Linux x86_64) AppleWebKit/537.36 (KHTML, like Gecko) Chrome/85.0.4183.121 Safari/537.36",149,"[0.9, 0.5, 0.1]","[0.8, 0.4, 0.2]","[u'blue', u'black', u'red']","[u'left', u'middle', u'right']","[0.8, 0.4, 0.2]","[u'low', u'high', u'medium']","red",51,"right","medium","True","False",427,8300,NA
"A2OA3ZDP0Y3Q9U","Sat Oct 03 2020 16:26:59 GMT-0500 (Central Daylight Time)","Sat Oct 03 2020 16:36:20 GMT-0500 (Central Daylight Time)","Mozilla/5.0 (X11; Linux x86_64) AppleWebKit/537.36 (KHTML, like Gecko) Chrome/85.0.4183.121 Safari/537.36",150,"[0.9, 0.5, 0.1]","[0.8, 0.4, 0.2]","[u'blue', u'black', u'red']","[u'left', u'middle', u'right']","[0.8, 0.4, 0.2]","[u'low', u'high', u'medium']","red",51,"right","medium","True","False",604,8400,NA
"A2OA3ZDP0Y3Q9U","Sat Oct 03 2020 16:26:59 GMT-0500 (Central Daylight Time)","Sat Oct 03 2020 16:36:20 GMT-0500 (Central Daylight Time)","Mozilla/5.0 (X11; Linux x86_64) AppleWebKit/537.36 (KHTML, like Gecko) Chrome/85.0.4183.121 Safari/537.36",151,"[0.9, 0.5, 0.1]","[0.8, 0.4, 0.2]","[u'blue', u'black', u'red']","[u'left', u'middle', u'right']","[0.8, 0.4, 0.2]","[u'low', u'high', u'medium']","red",51,"right","medium","False","False",410,8350,NA
"A2OA3ZDP0Y3Q9U","Sat Oct 03 2020 16:26:59 GMT-0500 (Central Daylight Time)","Sat Oct 03 2020 16:36:20 GMT-0500 (Central Daylight Time)","Mozilla/5.0 (X11; Linux x86_64) AppleWebKit/537.36 (KHTML, like Gecko) Chrome/85.0.4183.121 Safari/537.36",152,"[0.9, 0.5, 0.1]","[0.8, 0.4, 0.2]","[u'blue', u'black', u'red']","[u'left', u'middle', u'right']","[0.8, 0.4, 0.2]","[u'low', u'high', u'medium']","red",51,"right","medium","False","False",243,8300,NA
"A2OA3ZDP0Y3Q9U","Sat Oct 03 2020 16:26:59 GMT-0500 (Central Daylight Time)","Sat Oct 03 2020 16:36:20 GMT-0500 (Central Daylight Time)","Mozilla/5.0 (X11; Linux x86_64) AppleWebKit/537.36 (KHTML, like Gecko) Chrome/85.0.4183.121 Safari/537.36",153,"[0.9, 0.5, 0.1]","[0.8, 0.4, 0.2]","[u'blue', u'black', u'red']","[u'left', u'middle', u'right']","[0.8, 0.4, 0.2]","[u'low', u'high', u'medium']","black",50,"middle","high","True","False",275,8400,NA
"A2OA3ZDP0Y3Q9U","Sat Oct 03 2020 16:26:59 GMT-0500 (Central Daylight Time)","Sat Oct 03 2020 16:36:20 GMT-0500 (Central Daylight Time)","Mozilla/5.0 (X11; Linux x86_64) AppleWebKit/537.36 (KHTML, like Gecko) Chrome/85.0.4183.121 Safari/537.36",154,"[0.9, 0.5, 0.1]","[0.8, 0.4, 0.2]","[u'blue', u'black', u'red']","[u'left', u'middle', u'right']","[0.8, 0.4, 0.2]","[u'low', u'high', u'medium']","black",50,"middle","high","False","False",307,8350,NA
"A2OA3ZDP0Y3Q9U","Sat Oct 03 2020 16:26:59 GMT-0500 (Central Daylight Time)","Sat Oct 03 2020 16:36:20 GMT-0500 (Central Daylight Time)","Mozilla/5.0 (X11; Linux x86_64) AppleWebKit/537.36 (KHTML, like Gecko) Chrome/85.0.4183.121 Safari/537.36",155,"[0.9, 0.5, 0.1]","[0.8, 0.4, 0.2]","[u'blue', u'black', u'red']","[u'left', u'middle', u'right']","[0.8, 0.4, 0.2]","[u'low', u'high', u'medium']","blue",49,"left","low","False","False",301,8300,NA
"A2OA3ZDP0Y3Q9U","Sat Oct 03 2020 16:26:59 GMT-0500 (Central Daylight Time)","Sat Oct 03 2020 16:36:20 GMT-0500 (Central Daylight Time)","Mozilla/5.0 (X11; Linux x86_64) AppleWebKit/537.36 (KHTML, like Gecko) Chrome/85.0.4183.121 Safari/537.36",156,"[0.9, 0.5, 0.1]","[0.8, 0.4, 0.2]","[u'blue', u'black', u'red']","[u'left', u'middle', u'right']","[0.8, 0.4, 0.2]","[u'low', u'high', u'medium']","black",50,"middle","high","True","False",218,8400,NA
"A2OA3ZDP0Y3Q9U","Sat Oct 03 2020 16:26:59 GMT-0500 (Central Daylight Time)","Sat Oct 03 2020 16:36:20 GMT-0500 (Central Daylight Time)","Mozilla/5.0 (X11; Linux x86_64) AppleWebKit/537.36 (KHTML, like Gecko) Chrome/85.0.4183.121 Safari/537.36",157,"[0.9, 0.5, 0.1]","[0.8, 0.4, 0.2]","[u'blue', u'black', u'red']","[u'left', u'middle', u'right']","[0.8, 0.4, 0.2]","[u'low', u'high', u'medium']","black",50,"middle","high","True","False",299,8500,NA
"A2OA3ZDP0Y3Q9U","Sat Oct 03 2020 16:26:59 GMT-0500 (Central Daylight Time)","Sat Oct 03 2020 16:36:20 GMT-0500 (Central Daylight Time)","Mozilla/5.0 (X11; Linux x86_64) AppleWebKit/537.36 (KHTML, like Gecko) Chrome/85.0.4183.121 Safari/537.36",158,"[0.9, 0.5, 0.1]","[0.8, 0.4, 0.2]","[u'blue', u'black', u'red']","[u'left', u'middle', u'right']","[0.8, 0.4, 0.2]","[u'low', u'high', u'medium']","black",50,"middle","high","False","False",331,8450,NA
"A2OA3ZDP0Y3Q9U","Sat Oct 03 2020 16:26:59 GMT-0500 (Central Daylight Time)","Sat Oct 03 2020 16:36:20 GMT-0500 (Central Daylight Time)","Mozilla/5.0 (X11; Linux x86_64) AppleWebKit/537.36 (KHTML, like Gecko) Chrome/85.0.4183.121 Safari/537.36",159,"[0.9, 0.5, 0.1]","[0.8, 0.4, 0.2]","[u'blue', u'black', u'red']","[u'left', u'middle', u'right']","[0.8, 0.4, 0.2]","[u'low', u'high', u'medium']","red",51,"right","medium","True","False",219,8550,NA
"A2OA3ZDP0Y3Q9U","Sat Oct 03 2020 16:26:59 GMT-0500 (Central Daylight Time)","Sat Oct 03 2020 16:36:20 GMT-0500 (Central Daylight Time)","Mozilla/5.0 (X11; Linux x86_64) AppleWebKit/537.36 (KHTML, like Gecko) Chrome/85.0.4183.121 Safari/537.36",160,"[0.9, 0.5, 0.1]","[0.8, 0.4, 0.2]","[u'blue', u'black', u'red']","[u'left', u'middle', u'right']","[0.8, 0.4, 0.2]","[u'low', u'high', u'medium']","red",51,"right","medium","True","False",340,8650,NA
