"src_subject_id","start_time","end_time","browser","index","first_half_probabilities","second_half_probabilities","deck_color","deck_position","deck_probabilities","deck_contingencies","response_color","key_press","response_position","response_probability","reward_type","trial_type","rt","reward_tally","exclusion_reason"
"A5T9IFDZ3W4T6","Sun Oct 04 2020 13:04:52 GMT-0400 (Eastern Daylight Time)","Sun Oct 04 2020 13:13:37 GMT-0400 (Eastern Daylight Time)","Mozilla/5.0 (Windows NT 10.0; WOW64) AppleWebKit/537.36 (KHTML, like Gecko) Chrome/85.0.4183.121 Safari/537.36",1,"[0.9, 0.5, 0.1]","[0.8, 0.4, 0.2]","[u'red', u'blue', u'black']","[u'left', u'middle', u'right']","[0.9, 0.5, 0.1]","[u'high', u'medium', u'low']","blue",50,"middle","medium","True","False",660,100,NA
"A5T9IFDZ3W4T6","Sun Oct 04 2020 13:04:52 GMT-0400 (Eastern Daylight Time)","Sun Oct 04 2020 13:13:37 GMT-0400 (Eastern Daylight Time)","Mozilla/5.0 (Windows NT 10.0; WOW64) AppleWebKit/537.36 (KHTML, like Gecko) Chrome/85.0.4183.121 Safari/537.36",2,"[0.9, 0.5, 0.1]","[0.8, 0.4, 0.2]","[u'red', u'blue', u'black']","[u'left', u'middle', u'right']","[0.9, 0.5, 0.1]","[u'high', u'medium', u'low']","blue",50,"middle","medium","False","False",281,50,NA
"A5T9IFDZ3W4T6","Sun Oct 04 2020 13:04:52 GMT-0400 (Eastern Daylight Time)","Sun Oct 04 2020 13:13:37 GMT-0400 (Eastern Daylight Time)","Mozilla/5.0 (Windows NT 10.0; WOW64) AppleWebKit/537.36 (KHTML, like Gecko) Chrome/85.0.4183.121 Safari/537.36",3,"[0.9, 0.5, 0.1]","[0.8, 0.4, 0.2]","[u'red', u'blue', u'black']","[u'left', u'middle', u'right']","[0.9, 0.5, 0.1]","[u'high', u'medium', u'low']","red",49,"left","high","True","False",287,150,NA
"A5T9IFDZ3W4T6","Sun Oct 04 2020 13:04:52 GMT-0400 (Eastern Daylight Time)","Sun Oct 04 2020 13:13:37 GMT-0400 (Eastern Daylight Time)","Mozilla/5.0 (Windows NT 10.0; WOW64) AppleWebKit/537.36 (KHTML, like Gecko) Chrome/85.0.4183.121 Safari/537.36",4,"[0.9, 0.5, 0.1]","[0.8, 0.4, 0.2]","[u'red', u'blue', u'black']","[u'left', u'middle', u'right']","[0.9, 0.5, 0.1]","[u'high', u'medium', u'low']","black",51,"right","low","False","False",293,100,NA
"A5T9IFDZ3W4T6","Sun Oct 04 2020 13:04:52 GMT-0400 (Eastern Daylight Time)","Sun Oct 04 2020 13:13:37 GMT-0400 (Eastern Daylight Time)","Mozilla/5.0 (Windows NT 10.0; WOW64) AppleWebKit/537.36 (KHTML, like Gecko) Chrome/85.0.4183.121 Safari/537.36",5,"[0.9, 0.5, 0.1]","[0.8, 0.4, 0.2]","[u'red', u'blue', u'black']","[u'left', u'middle', u'right']","[0.9, 0.5, 0.1]","[u'high', u'medium', u'low']","red",49,"left","high","True","False",269,200,NA
"A5T9IFDZ3W4T6","Sun Oct 04 2020 13:04:52 GMT-0400 (Eastern Daylight Time)","Sun Oct 04 2020 13:13:37 GMT-0400 (Eastern Daylight Time)","Mozilla/5.0 (Windows NT 10.0; WOW64) AppleWebKit/537.36 (KHTML, like Gecko) Chrome/85.0.4183.121 Safari/537.36",6,"[0.9, 0.5, 0.1]","[0.8, 0.4, 0.2]","[u'red', u'blue', u'black']","[u'left', u'middle', u'right']","[0.9, 0.5, 0.1]","[u'high', u'medium', u'low']","red",49,"left","high","True","False",379,300,NA
"A5T9IFDZ3W4T6","Sun Oct 04 2020 13:04:52 GMT-0400 (Eastern Daylight Time)","Sun Oct 04 2020 13:13:37 GMT-0400 (Eastern Daylight Time)","Mozilla/5.0 (Windows NT 10.0; WOW64) AppleWebKit/537.36 (KHTML, like Gecko) Chrome/85.0.4183.121 Safari/537.36",7,"[0.9, 0.5, 0.1]","[0.8, 0.4, 0.2]","[u'red', u'blue', u'black']","[u'left', u'middle', u'right']","[0.9, 0.5, 0.1]","[u'high', u'medium', u'low']","red",49,"left","high","True","False",317,400,NA
"A5T9IFDZ3W4T6","Sun Oct 04 2020 13:04:52 GMT-0400 (Eastern Daylight Time)","Sun Oct 04 2020 13:13:37 GMT-0400 (Eastern Daylight Time)","Mozilla/5.0 (Windows NT 10.0; WOW64) AppleWebKit/537.36 (KHTML, like Gecko) Chrome/85.0.4183.121 Safari/537.36",8,"[0.9, 0.5, 0.1]","[0.8, 0.4, 0.2]","[u'red', u'blue', u'black']","[u'left', u'middle', u'right']","[0.9, 0.5, 0.1]","[u'high', u'medium', u'low']","red",49,"left","high","True","False",496,500,NA
"A5T9IFDZ3W4T6","Sun Oct 04 2020 13:04:52 GMT-0400 (Eastern Daylight Time)","Sun Oct 04 2020 13:13:37 GMT-0400 (Eastern Daylight Time)","Mozilla/5.0 (Windows NT 10.0; WOW64) AppleWebKit/537.36 (KHTML, like Gecko) Chrome/85.0.4183.121 Safari/537.36",9,"[0.9, 0.5, 0.1]","[0.8, 0.4, 0.2]","[u'red', u'blue', u'black']","[u'left', u'middle', u'right']","[0.9, 0.5, 0.1]","[u'high', u'medium', u'low']","red",49,"left","high","True","False",419,600,NA
"A5T9IFDZ3W4T6","Sun Oct 04 2020 13:04:52 GMT-0400 (Eastern Daylight Time)","Sun Oct 04 2020 13:13:37 GMT-0400 (Eastern Daylight Time)","Mozilla/5.0 (Windows NT 10.0; WOW64) AppleWebKit/537.36 (KHTML, like Gecko) Chrome/85.0.4183.121 Safari/537.36",10,"[0.9, 0.5, 0.1]","[0.8, 0.4, 0.2]","[u'red', u'blue', u'black']","[u'left', u'middle', u'right']","[0.9, 0.5, 0.1]","[u'high', u'medium', u'low']","red",49,"left","high","True","False",572,700,NA
"A5T9IFDZ3W4T6","Sun Oct 04 2020 13:04:52 GMT-0400 (Eastern Daylight Time)","Sun Oct 04 2020 13:13:37 GMT-0400 (Eastern Daylight Time)","Mozilla/5.0 (Windows NT 10.0; WOW64) AppleWebKit/537.36 (KHTML, like Gecko) Chrome/85.0.4183.121 Safari/537.36",11,"[0.9, 0.5, 0.1]","[0.8, 0.4, 0.2]","[u'red', u'blue', u'black']","[u'left', u'middle', u'right']","[0.9, 0.5, 0.1]","[u'high', u'medium', u'low']","red",49,"left","high","True","False",435,800,NA
"A5T9IFDZ3W4T6","Sun Oct 04 2020 13:04:52 GMT-0400 (Eastern Daylight Time)","Sun Oct 04 2020 13:13:37 GMT-0400 (Eastern Daylight Time)","Mozilla/5.0 (Windows NT 10.0; WOW64) AppleWebKit/537.36 (KHTML, like Gecko) Chrome/85.0.4183.121 Safari/537.36",12,"[0.9, 0.5, 0.1]","[0.8, 0.4, 0.2]","[u'red', u'blue', u'black']","[u'left', u'middle', u'right']","[0.9, 0.5, 0.1]","[u'high', u'medium', u'low']","red",49,"left","high","True","True",454,900,NA
"A5T9IFDZ3W4T6","Sun Oct 04 2020 13:04:52 GMT-0400 (Eastern Daylight Time)","Sun Oct 04 2020 13:13:37 GMT-0400 (Eastern Daylight Time)","Mozilla/5.0 (Windows NT 10.0; WOW64) AppleWebKit/537.36 (KHTML, like Gecko) Chrome/85.0.4183.121 Safari/537.36",13,"[0.9, 0.5, 0.1]","[0.8, 0.4, 0.2]","[u'red', u'blue', u'black']","[u'left', u'middle', u'right']","[0.9, 0.5, 0.1]","[u'low', u'high', u'medium']","red",49,"left","low","False","False",486,850,NA
"A5T9IFDZ3W4T6","Sun Oct 04 2020 13:04:52 GMT-0400 (Eastern Daylight Time)","Sun Oct 04 2020 13:13:37 GMT-0400 (Eastern Daylight Time)","Mozilla/5.0 (Windows NT 10.0; WOW64) AppleWebKit/537.36 (KHTML, like Gecko) Chrome/85.0.4183.121 Safari/537.36",14,"[0.9, 0.5, 0.1]","[0.8, 0.4, 0.2]","[u'red', u'blue', u'black']","[u'left', u'middle', u'right']","[0.9, 0.5, 0.1]","[u'low', u'high', u'medium']","blue",50,"middle","high","True","False",325,950,NA
"A5T9IFDZ3W4T6","Sun Oct 04 2020 13:04:52 GMT-0400 (Eastern Daylight Time)","Sun Oct 04 2020 13:13:37 GMT-0400 (Eastern Daylight Time)","Mozilla/5.0 (Windows NT 10.0; WOW64) AppleWebKit/537.36 (KHTML, like Gecko) Chrome/85.0.4183.121 Safari/537.36",15,"[0.9, 0.5, 0.1]","[0.8, 0.4, 0.2]","[u'red', u'blue', u'black']","[u'left', u'middle', u'right']","[0.9, 0.5, 0.1]","[u'low', u'high', u'medium']","blue",50,"middle","high","True","False",295,1050,NA
"A5T9IFDZ3W4T6","Sun Oct 04 2020 13:04:52 GMT-0400 (Eastern Daylight Time)","Sun Oct 04 2020 13:13:37 GMT-0400 (Eastern Daylight Time)","Mozilla/5.0 (Windows NT 10.0; WOW64) AppleWebKit/537.36 (KHTML, like Gecko) Chrome/85.0.4183.121 Safari/537.36",16,"[0.9, 0.5, 0.1]","[0.8, 0.4, 0.2]","[u'red', u'blue', u'black']","[u'left', u'middle', u'right']","[0.9, 0.5, 0.1]","[u'low', u'high', u'medium']","blue",50,"middle","high","True","False",292,1150,NA
"A5T9IFDZ3W4T6","Sun Oct 04 2020 13:04:52 GMT-0400 (Eastern Daylight Time)","Sun Oct 04 2020 13:13:37 GMT-0400 (Eastern Daylight Time)","Mozilla/5.0 (Windows NT 10.0; WOW64) AppleWebKit/537.36 (KHTML, like Gecko) Chrome/85.0.4183.121 Safari/537.36",17,"[0.9, 0.5, 0.1]","[0.8, 0.4, 0.2]","[u'red', u'blue', u'black']","[u'left', u'middle', u'right']","[0.9, 0.5, 0.1]","[u'low', u'high', u'medium']","blue",50,"middle","high","True","False",261,1250,NA
"A5T9IFDZ3W4T6","Sun Oct 04 2020 13:04:52 GMT-0400 (Eastern Daylight Time)","Sun Oct 04 2020 13:13:37 GMT-0400 (Eastern Daylight Time)","Mozilla/5.0 (Windows NT 10.0; WOW64) AppleWebKit/537.36 (KHTML, like Gecko) Chrome/85.0.4183.121 Safari/537.36",18,"[0.9, 0.5, 0.1]","[0.8, 0.4, 0.2]","[u'red', u'blue', u'black']","[u'left', u'middle', u'right']","[0.9, 0.5, 0.1]","[u'low', u'high', u'medium']","blue",50,"middle","high","True","False",267,1350,NA
"A5T9IFDZ3W4T6","Sun Oct 04 2020 13:04:52 GMT-0400 (Eastern Daylight Time)","Sun Oct 04 2020 13:13:37 GMT-0400 (Eastern Daylight Time)","Mozilla/5.0 (Windows NT 10.0; WOW64) AppleWebKit/537.36 (KHTML, like Gecko) Chrome/85.0.4183.121 Safari/537.36",19,"[0.9, 0.5, 0.1]","[0.8, 0.4, 0.2]","[u'red', u'blue', u'black']","[u'left', u'middle', u'right']","[0.9, 0.5, 0.1]","[u'low', u'high', u'medium']","blue",50,"middle","high","True","False",253,1450,NA
"A5T9IFDZ3W4T6","Sun Oct 04 2020 13:04:52 GMT-0400 (Eastern Daylight Time)","Sun Oct 04 2020 13:13:37 GMT-0400 (Eastern Daylight Time)","Mozilla/5.0 (Windows NT 10.0; WOW64) AppleWebKit/537.36 (KHTML, like Gecko) Chrome/85.0.4183.121 Safari/537.36",20,"[0.9, 0.5, 0.1]","[0.8, 0.4, 0.2]","[u'red', u'blue', u'black']","[u'left', u'middle', u'right']","[0.9, 0.5, 0.1]","[u'low', u'high', u'medium']","blue",50,"middle","high","True","False",166,1550,NA
"A5T9IFDZ3W4T6","Sun Oct 04 2020 13:04:52 GMT-0400 (Eastern Daylight Time)","Sun Oct 04 2020 13:13:37 GMT-0400 (Eastern Daylight Time)","Mozilla/5.0 (Windows NT 10.0; WOW64) AppleWebKit/537.36 (KHTML, like Gecko) Chrome/85.0.4183.121 Safari/537.36",21,"[0.9, 0.5, 0.1]","[0.8, 0.4, 0.2]","[u'red', u'blue', u'black']","[u'left', u'middle', u'right']","[0.9, 0.5, 0.1]","[u'low', u'high', u'medium']","blue",50,"middle","high","True","False",222,1650,NA
"A5T9IFDZ3W4T6","Sun Oct 04 2020 13:04:52 GMT-0400 (Eastern Daylight Time)","Sun Oct 04 2020 13:13:37 GMT-0400 (Eastern Daylight Time)","Mozilla/5.0 (Windows NT 10.0; WOW64) AppleWebKit/537.36 (KHTML, like Gecko) Chrome/85.0.4183.121 Safari/537.36",22,"[0.9, 0.5, 0.1]","[0.8, 0.4, 0.2]","[u'red', u'blue', u'black']","[u'left', u'middle', u'right']","[0.9, 0.5, 0.1]","[u'low', u'high', u'medium']","blue",50,"middle","high","True","True",245,1750,NA
"A5T9IFDZ3W4T6","Sun Oct 04 2020 13:04:52 GMT-0400 (Eastern Daylight Time)","Sun Oct 04 2020 13:13:37 GMT-0400 (Eastern Daylight Time)","Mozilla/5.0 (Windows NT 10.0; WOW64) AppleWebKit/537.36 (KHTML, like Gecko) Chrome/85.0.4183.121 Safari/537.36",23,"[0.9, 0.5, 0.1]","[0.8, 0.4, 0.2]","[u'red', u'blue', u'black']","[u'left', u'middle', u'right']","[0.9, 0.5, 0.1]","[u'medium', u'low', u'high']","blue",50,"middle","low","False","False",245,1700,NA
"A5T9IFDZ3W4T6","Sun Oct 04 2020 13:04:52 GMT-0400 (Eastern Daylight Time)","Sun Oct 04 2020 13:13:37 GMT-0400 (Eastern Daylight Time)","Mozilla/5.0 (Windows NT 10.0; WOW64) AppleWebKit/537.36 (KHTML, like Gecko) Chrome/85.0.4183.121 Safari/537.36",24,"[0.9, 0.5, 0.1]","[0.8, 0.4, 0.2]","[u'red', u'blue', u'black']","[u'left', u'middle', u'right']","[0.9, 0.5, 0.1]","[u'medium', u'low', u'high']","red",49,"left","medium","False","False",170,1650,NA
"A5T9IFDZ3W4T6","Sun Oct 04 2020 13:04:52 GMT-0400 (Eastern Daylight Time)","Sun Oct 04 2020 13:13:37 GMT-0400 (Eastern Daylight Time)","Mozilla/5.0 (Windows NT 10.0; WOW64) AppleWebKit/537.36 (KHTML, like Gecko) Chrome/85.0.4183.121 Safari/537.36",25,"[0.9, 0.5, 0.1]","[0.8, 0.4, 0.2]","[u'red', u'blue', u'black']","[u'left', u'middle', u'right']","[0.9, 0.5, 0.1]","[u'medium', u'low', u'high']","blue",50,"middle","low","False","False",209,1600,NA
"A5T9IFDZ3W4T6","Sun Oct 04 2020 13:04:52 GMT-0400 (Eastern Daylight Time)","Sun Oct 04 2020 13:13:37 GMT-0400 (Eastern Daylight Time)","Mozilla/5.0 (Windows NT 10.0; WOW64) AppleWebKit/537.36 (KHTML, like Gecko) Chrome/85.0.4183.121 Safari/537.36",26,"[0.9, 0.5, 0.1]","[0.8, 0.4, 0.2]","[u'red', u'blue', u'black']","[u'left', u'middle', u'right']","[0.9, 0.5, 0.1]","[u'medium', u'low', u'high']","black",51,"right","high","False","False",275,1550,NA
"A5T9IFDZ3W4T6","Sun Oct 04 2020 13:04:52 GMT-0400 (Eastern Daylight Time)","Sun Oct 04 2020 13:13:37 GMT-0400 (Eastern Daylight Time)","Mozilla/5.0 (Windows NT 10.0; WOW64) AppleWebKit/537.36 (KHTML, like Gecko) Chrome/85.0.4183.121 Safari/537.36",27,"[0.9, 0.5, 0.1]","[0.8, 0.4, 0.2]","[u'red', u'blue', u'black']","[u'left', u'middle', u'right']","[0.9, 0.5, 0.1]","[u'medium', u'low', u'high']","red",49,"left","medium","False","False",256,1500,NA
"A5T9IFDZ3W4T6","Sun Oct 04 2020 13:04:52 GMT-0400 (Eastern Daylight Time)","Sun Oct 04 2020 13:13:37 GMT-0400 (Eastern Daylight Time)","Mozilla/5.0 (Windows NT 10.0; WOW64) AppleWebKit/537.36 (KHTML, like Gecko) Chrome/85.0.4183.121 Safari/537.36",28,"[0.9, 0.5, 0.1]","[0.8, 0.4, 0.2]","[u'red', u'blue', u'black']","[u'left', u'middle', u'right']","[0.9, 0.5, 0.1]","[u'medium', u'low', u'high']","red",49,"left","medium","True","False",230,1600,NA
"A5T9IFDZ3W4T6","Sun Oct 04 2020 13:04:52 GMT-0400 (Eastern Daylight Time)","Sun Oct 04 2020 13:13:37 GMT-0400 (Eastern Daylight Time)","Mozilla/5.0 (Windows NT 10.0; WOW64) AppleWebKit/537.36 (KHTML, like Gecko) Chrome/85.0.4183.121 Safari/537.36",29,"[0.9, 0.5, 0.1]","[0.8, 0.4, 0.2]","[u'red', u'blue', u'black']","[u'left', u'middle', u'right']","[0.9, 0.5, 0.1]","[u'medium', u'low', u'high']","red",49,"left","medium","False","False",301,1550,NA
"A5T9IFDZ3W4T6","Sun Oct 04 2020 13:04:52 GMT-0400 (Eastern Daylight Time)","Sun Oct 04 2020 13:13:37 GMT-0400 (Eastern Daylight Time)","Mozilla/5.0 (Windows NT 10.0; WOW64) AppleWebKit/537.36 (KHTML, like Gecko) Chrome/85.0.4183.121 Safari/537.36",30,"[0.9, 0.5, 0.1]","[0.8, 0.4, 0.2]","[u'red', u'blue', u'black']","[u'left', u'middle', u'right']","[0.9, 0.5, 0.1]","[u'medium', u'low', u'high']","blue",50,"middle","low","False","False",372,1500,NA
"A5T9IFDZ3W4T6","Sun Oct 04 2020 13:04:52 GMT-0400 (Eastern Daylight Time)","Sun Oct 04 2020 13:13:37 GMT-0400 (Eastern Daylight Time)","Mozilla/5.0 (Windows NT 10.0; WOW64) AppleWebKit/537.36 (KHTML, like Gecko) Chrome/85.0.4183.121 Safari/537.36",31,"[0.9, 0.5, 0.1]","[0.8, 0.4, 0.2]","[u'red', u'blue', u'black']","[u'left', u'middle', u'right']","[0.9, 0.5, 0.1]","[u'medium', u'low', u'high']","blue",50,"middle","low","False","False",231,1450,NA
"A5T9IFDZ3W4T6","Sun Oct 04 2020 13:04:52 GMT-0400 (Eastern Daylight Time)","Sun Oct 04 2020 13:13:37 GMT-0400 (Eastern Daylight Time)","Mozilla/5.0 (Windows NT 10.0; WOW64) AppleWebKit/537.36 (KHTML, like Gecko) Chrome/85.0.4183.121 Safari/537.36",32,"[0.9, 0.5, 0.1]","[0.8, 0.4, 0.2]","[u'red', u'blue', u'black']","[u'left', u'middle', u'right']","[0.9, 0.5, 0.1]","[u'medium', u'low', u'high']","red",49,"left","medium","True","False",181,1550,NA
"A5T9IFDZ3W4T6","Sun Oct 04 2020 13:04:52 GMT-0400 (Eastern Daylight Time)","Sun Oct 04 2020 13:13:37 GMT-0400 (Eastern Daylight Time)","Mozilla/5.0 (Windows NT 10.0; WOW64) AppleWebKit/537.36 (KHTML, like Gecko) Chrome/85.0.4183.121 Safari/537.36",33,"[0.9, 0.5, 0.1]","[0.8, 0.4, 0.2]","[u'red', u'blue', u'black']","[u'left', u'middle', u'right']","[0.9, 0.5, 0.1]","[u'medium', u'low', u'high']","red",49,"left","medium","False","False",277,1500,NA
"A5T9IFDZ3W4T6","Sun Oct 04 2020 13:04:52 GMT-0400 (Eastern Daylight Time)","Sun Oct 04 2020 13:13:37 GMT-0400 (Eastern Daylight Time)","Mozilla/5.0 (Windows NT 10.0; WOW64) AppleWebKit/537.36 (KHTML, like Gecko) Chrome/85.0.4183.121 Safari/537.36",34,"[0.9, 0.5, 0.1]","[0.8, 0.4, 0.2]","[u'red', u'blue', u'black']","[u'left', u'middle', u'right']","[0.9, 0.5, 0.1]","[u'medium', u'low', u'high']","red",49,"left","medium","False","False",299,1450,NA
"A5T9IFDZ3W4T6","Sun Oct 04 2020 13:04:52 GMT-0400 (Eastern Daylight Time)","Sun Oct 04 2020 13:13:37 GMT-0400 (Eastern Daylight Time)","Mozilla/5.0 (Windows NT 10.0; WOW64) AppleWebKit/537.36 (KHTML, like Gecko) Chrome/85.0.4183.121 Safari/537.36",35,"[0.9, 0.5, 0.1]","[0.8, 0.4, 0.2]","[u'red', u'blue', u'black']","[u'left', u'middle', u'right']","[0.9, 0.5, 0.1]","[u'medium', u'low', u'high']","black",51,"right","high","True","False",168,1550,NA
"A5T9IFDZ3W4T6","Sun Oct 04 2020 13:04:52 GMT-0400 (Eastern Daylight Time)","Sun Oct 04 2020 13:13:37 GMT-0400 (Eastern Daylight Time)","Mozilla/5.0 (Windows NT 10.0; WOW64) AppleWebKit/537.36 (KHTML, like Gecko) Chrome/85.0.4183.121 Safari/537.36",36,"[0.9, 0.5, 0.1]","[0.8, 0.4, 0.2]","[u'red', u'blue', u'black']","[u'left', u'middle', u'right']","[0.9, 0.5, 0.1]","[u'medium', u'low', u'high']","black",51,"right","high","True","False",255,1650,NA
"A5T9IFDZ3W4T6","Sun Oct 04 2020 13:04:52 GMT-0400 (Eastern Daylight Time)","Sun Oct 04 2020 13:13:37 GMT-0400 (Eastern Daylight Time)","Mozilla/5.0 (Windows NT 10.0; WOW64) AppleWebKit/537.36 (KHTML, like Gecko) Chrome/85.0.4183.121 Safari/537.36",37,"[0.9, 0.5, 0.1]","[0.8, 0.4, 0.2]","[u'red', u'blue', u'black']","[u'left', u'middle', u'right']","[0.9, 0.5, 0.1]","[u'medium', u'low', u'high']","black",51,"right","high","True","False",290,1750,NA
"A5T9IFDZ3W4T6","Sun Oct 04 2020 13:04:52 GMT-0400 (Eastern Daylight Time)","Sun Oct 04 2020 13:13:37 GMT-0400 (Eastern Daylight Time)","Mozilla/5.0 (Windows NT 10.0; WOW64) AppleWebKit/537.36 (KHTML, like Gecko) Chrome/85.0.4183.121 Safari/537.36",38,"[0.9, 0.5, 0.1]","[0.8, 0.4, 0.2]","[u'red', u'blue', u'black']","[u'left', u'middle', u'right']","[0.9, 0.5, 0.1]","[u'medium', u'low', u'high']","black",51,"right","high","True","False",208,1850,NA
"A5T9IFDZ3W4T6","Sun Oct 04 2020 13:04:52 GMT-0400 (Eastern Daylight Time)","Sun Oct 04 2020 13:13:37 GMT-0400 (Eastern Daylight Time)","Mozilla/5.0 (Windows NT 10.0; WOW64) AppleWebKit/537.36 (KHTML, like Gecko) Chrome/85.0.4183.121 Safari/537.36",39,"[0.9, 0.5, 0.1]","[0.8, 0.4, 0.2]","[u'red', u'blue', u'black']","[u'left', u'middle', u'right']","[0.9, 0.5, 0.1]","[u'medium', u'low', u'high']","black",51,"right","high","True","False",246,1950,NA
"A5T9IFDZ3W4T6","Sun Oct 04 2020 13:04:52 GMT-0400 (Eastern Daylight Time)","Sun Oct 04 2020 13:13:37 GMT-0400 (Eastern Daylight Time)","Mozilla/5.0 (Windows NT 10.0; WOW64) AppleWebKit/537.36 (KHTML, like Gecko) Chrome/85.0.4183.121 Safari/537.36",40,"[0.9, 0.5, 0.1]","[0.8, 0.4, 0.2]","[u'red', u'blue', u'black']","[u'left', u'middle', u'right']","[0.9, 0.5, 0.1]","[u'medium', u'low', u'high']","black",51,"right","high","True","False",304,2050,NA
"A5T9IFDZ3W4T6","Sun Oct 04 2020 13:04:52 GMT-0400 (Eastern Daylight Time)","Sun Oct 04 2020 13:13:37 GMT-0400 (Eastern Daylight Time)","Mozilla/5.0 (Windows NT 10.0; WOW64) AppleWebKit/537.36 (KHTML, like Gecko) Chrome/85.0.4183.121 Safari/537.36",41,"[0.9, 0.5, 0.1]","[0.8, 0.4, 0.2]","[u'red', u'blue', u'black']","[u'left', u'middle', u'right']","[0.9, 0.5, 0.1]","[u'high', u'low', u'medium']","black",51,"right","medium","False","False",338,2000,NA
"A5T9IFDZ3W4T6","Sun Oct 04 2020 13:04:52 GMT-0400 (Eastern Daylight Time)","Sun Oct 04 2020 13:13:37 GMT-0400 (Eastern Daylight Time)","Mozilla/5.0 (Windows NT 10.0; WOW64) AppleWebKit/537.36 (KHTML, like Gecko) Chrome/85.0.4183.121 Safari/537.36",42,"[0.9, 0.5, 0.1]","[0.8, 0.4, 0.2]","[u'red', u'blue', u'black']","[u'left', u'middle', u'right']","[0.9, 0.5, 0.1]","[u'high', u'low', u'medium']","blue",50,"middle","low","False","False",286,1950,NA
"A5T9IFDZ3W4T6","Sun Oct 04 2020 13:04:52 GMT-0400 (Eastern Daylight Time)","Sun Oct 04 2020 13:13:37 GMT-0400 (Eastern Daylight Time)","Mozilla/5.0 (Windows NT 10.0; WOW64) AppleWebKit/537.36 (KHTML, like Gecko) Chrome/85.0.4183.121 Safari/537.36",43,"[0.9, 0.5, 0.1]","[0.8, 0.4, 0.2]","[u'red', u'blue', u'black']","[u'left', u'middle', u'right']","[0.9, 0.5, 0.1]","[u'high', u'low', u'medium']","blue",50,"middle","low","True","False",273,2050,NA
"A5T9IFDZ3W4T6","Sun Oct 04 2020 13:04:52 GMT-0400 (Eastern Daylight Time)","Sun Oct 04 2020 13:13:37 GMT-0400 (Eastern Daylight Time)","Mozilla/5.0 (Windows NT 10.0; WOW64) AppleWebKit/537.36 (KHTML, like Gecko) Chrome/85.0.4183.121 Safari/537.36",44,"[0.9, 0.5, 0.1]","[0.8, 0.4, 0.2]","[u'red', u'blue', u'black']","[u'left', u'middle', u'right']","[0.9, 0.5, 0.1]","[u'high', u'low', u'medium']","blue",50,"middle","low","False","False",250,2000,NA
"A5T9IFDZ3W4T6","Sun Oct 04 2020 13:04:52 GMT-0400 (Eastern Daylight Time)","Sun Oct 04 2020 13:13:37 GMT-0400 (Eastern Daylight Time)","Mozilla/5.0 (Windows NT 10.0; WOW64) AppleWebKit/537.36 (KHTML, like Gecko) Chrome/85.0.4183.121 Safari/537.36",45,"[0.9, 0.5, 0.1]","[0.8, 0.4, 0.2]","[u'red', u'blue', u'black']","[u'left', u'middle', u'right']","[0.9, 0.5, 0.1]","[u'high', u'low', u'medium']","red",49,"left","high","True","False",166,2100,NA
"A5T9IFDZ3W4T6","Sun Oct 04 2020 13:04:52 GMT-0400 (Eastern Daylight Time)","Sun Oct 04 2020 13:13:37 GMT-0400 (Eastern Daylight Time)","Mozilla/5.0 (Windows NT 10.0; WOW64) AppleWebKit/537.36 (KHTML, like Gecko) Chrome/85.0.4183.121 Safari/537.36",46,"[0.9, 0.5, 0.1]","[0.8, 0.4, 0.2]","[u'red', u'blue', u'black']","[u'left', u'middle', u'right']","[0.9, 0.5, 0.1]","[u'high', u'low', u'medium']","red",49,"left","high","True","False",274,2200,NA
"A5T9IFDZ3W4T6","Sun Oct 04 2020 13:04:52 GMT-0400 (Eastern Daylight Time)","Sun Oct 04 2020 13:13:37 GMT-0400 (Eastern Daylight Time)","Mozilla/5.0 (Windows NT 10.0; WOW64) AppleWebKit/537.36 (KHTML, like Gecko) Chrome/85.0.4183.121 Safari/537.36",47,"[0.9, 0.5, 0.1]","[0.8, 0.4, 0.2]","[u'red', u'blue', u'black']","[u'left', u'middle', u'right']","[0.9, 0.5, 0.1]","[u'high', u'low', u'medium']","red",49,"left","high","True","False",273,2300,NA
"A5T9IFDZ3W4T6","Sun Oct 04 2020 13:04:52 GMT-0400 (Eastern Daylight Time)","Sun Oct 04 2020 13:13:37 GMT-0400 (Eastern Daylight Time)","Mozilla/5.0 (Windows NT 10.0; WOW64) AppleWebKit/537.36 (KHTML, like Gecko) Chrome/85.0.4183.121 Safari/537.36",48,"[0.9, 0.5, 0.1]","[0.8, 0.4, 0.2]","[u'red', u'blue', u'black']","[u'left', u'middle', u'right']","[0.9, 0.5, 0.1]","[u'high', u'low', u'medium']","red",49,"left","high","True","False",324,2400,NA
"A5T9IFDZ3W4T6","Sun Oct 04 2020 13:04:52 GMT-0400 (Eastern Daylight Time)","Sun Oct 04 2020 13:13:37 GMT-0400 (Eastern Daylight Time)","Mozilla/5.0 (Windows NT 10.0; WOW64) AppleWebKit/537.36 (KHTML, like Gecko) Chrome/85.0.4183.121 Safari/537.36",49,"[0.9, 0.5, 0.1]","[0.8, 0.4, 0.2]","[u'red', u'blue', u'black']","[u'left', u'middle', u'right']","[0.9, 0.5, 0.1]","[u'high', u'low', u'medium']","red",49,"left","high","True","False",178,2500,NA
"A5T9IFDZ3W4T6","Sun Oct 04 2020 13:04:52 GMT-0400 (Eastern Daylight Time)","Sun Oct 04 2020 13:13:37 GMT-0400 (Eastern Daylight Time)","Mozilla/5.0 (Windows NT 10.0; WOW64) AppleWebKit/537.36 (KHTML, like Gecko) Chrome/85.0.4183.121 Safari/537.36",50,"[0.9, 0.5, 0.1]","[0.8, 0.4, 0.2]","[u'red', u'blue', u'black']","[u'left', u'middle', u'right']","[0.9, 0.5, 0.1]","[u'high', u'low', u'medium']","red",49,"left","high","True","False",284,2600,NA
"A5T9IFDZ3W4T6","Sun Oct 04 2020 13:04:52 GMT-0400 (Eastern Daylight Time)","Sun Oct 04 2020 13:13:37 GMT-0400 (Eastern Daylight Time)","Mozilla/5.0 (Windows NT 10.0; WOW64) AppleWebKit/537.36 (KHTML, like Gecko) Chrome/85.0.4183.121 Safari/537.36",51,"[0.9, 0.5, 0.1]","[0.8, 0.4, 0.2]","[u'red', u'blue', u'black']","[u'left', u'middle', u'right']","[0.9, 0.5, 0.1]","[u'high', u'low', u'medium']","red",49,"left","high","True","False",283,2700,NA
"A5T9IFDZ3W4T6","Sun Oct 04 2020 13:04:52 GMT-0400 (Eastern Daylight Time)","Sun Oct 04 2020 13:13:37 GMT-0400 (Eastern Daylight Time)","Mozilla/5.0 (Windows NT 10.0; WOW64) AppleWebKit/537.36 (KHTML, like Gecko) Chrome/85.0.4183.121 Safari/537.36",52,"[0.9, 0.5, 0.1]","[0.8, 0.4, 0.2]","[u'red', u'blue', u'black']","[u'left', u'middle', u'right']","[0.9, 0.5, 0.1]","[u'high', u'low', u'medium']","red",49,"left","high","True","False",159,2800,NA
"A5T9IFDZ3W4T6","Sun Oct 04 2020 13:04:52 GMT-0400 (Eastern Daylight Time)","Sun Oct 04 2020 13:13:37 GMT-0400 (Eastern Daylight Time)","Mozilla/5.0 (Windows NT 10.0; WOW64) AppleWebKit/537.36 (KHTML, like Gecko) Chrome/85.0.4183.121 Safari/537.36",53,"[0.9, 0.5, 0.1]","[0.8, 0.4, 0.2]","[u'red', u'blue', u'black']","[u'left', u'middle', u'right']","[0.9, 0.5, 0.1]","[u'high', u'low', u'medium']","red",49,"left","high","True","True",349,2900,NA
"A5T9IFDZ3W4T6","Sun Oct 04 2020 13:04:52 GMT-0400 (Eastern Daylight Time)","Sun Oct 04 2020 13:13:37 GMT-0400 (Eastern Daylight Time)","Mozilla/5.0 (Windows NT 10.0; WOW64) AppleWebKit/537.36 (KHTML, like Gecko) Chrome/85.0.4183.121 Safari/537.36",54,"[0.9, 0.5, 0.1]","[0.8, 0.4, 0.2]","[u'red', u'blue', u'black']","[u'left', u'middle', u'right']","[0.9, 0.5, 0.1]","[u'medium', u'low', u'high']","red",49,"left","medium","False","False",372,2850,NA
"A5T9IFDZ3W4T6","Sun Oct 04 2020 13:04:52 GMT-0400 (Eastern Daylight Time)","Sun Oct 04 2020 13:13:37 GMT-0400 (Eastern Daylight Time)","Mozilla/5.0 (Windows NT 10.0; WOW64) AppleWebKit/537.36 (KHTML, like Gecko) Chrome/85.0.4183.121 Safari/537.36",55,"[0.9, 0.5, 0.1]","[0.8, 0.4, 0.2]","[u'red', u'blue', u'black']","[u'left', u'middle', u'right']","[0.9, 0.5, 0.1]","[u'medium', u'low', u'high']","black",51,"right","high","True","False",271,2950,NA
"A5T9IFDZ3W4T6","Sun Oct 04 2020 13:04:52 GMT-0400 (Eastern Daylight Time)","Sun Oct 04 2020 13:13:37 GMT-0400 (Eastern Daylight Time)","Mozilla/5.0 (Windows NT 10.0; WOW64) AppleWebKit/537.36 (KHTML, like Gecko) Chrome/85.0.4183.121 Safari/537.36",56,"[0.9, 0.5, 0.1]","[0.8, 0.4, 0.2]","[u'red', u'blue', u'black']","[u'left', u'middle', u'right']","[0.9, 0.5, 0.1]","[u'medium', u'low', u'high']","black",51,"right","high","True","False",289,3050,NA
"A5T9IFDZ3W4T6","Sun Oct 04 2020 13:04:52 GMT-0400 (Eastern Daylight Time)","Sun Oct 04 2020 13:13:37 GMT-0400 (Eastern Daylight Time)","Mozilla/5.0 (Windows NT 10.0; WOW64) AppleWebKit/537.36 (KHTML, like Gecko) Chrome/85.0.4183.121 Safari/537.36",57,"[0.9, 0.5, 0.1]","[0.8, 0.4, 0.2]","[u'red', u'blue', u'black']","[u'left', u'middle', u'right']","[0.9, 0.5, 0.1]","[u'medium', u'low', u'high']","black",51,"right","high","True","False",273,3150,NA
"A5T9IFDZ3W4T6","Sun Oct 04 2020 13:04:52 GMT-0400 (Eastern Daylight Time)","Sun Oct 04 2020 13:13:37 GMT-0400 (Eastern Daylight Time)","Mozilla/5.0 (Windows NT 10.0; WOW64) AppleWebKit/537.36 (KHTML, like Gecko) Chrome/85.0.4183.121 Safari/537.36",58,"[0.9, 0.5, 0.1]","[0.8, 0.4, 0.2]","[u'red', u'blue', u'black']","[u'left', u'middle', u'right']","[0.9, 0.5, 0.1]","[u'medium', u'low', u'high']","black",51,"right","high","True","False",169,3250,NA
"A5T9IFDZ3W4T6","Sun Oct 04 2020 13:04:52 GMT-0400 (Eastern Daylight Time)","Sun Oct 04 2020 13:13:37 GMT-0400 (Eastern Daylight Time)","Mozilla/5.0 (Windows NT 10.0; WOW64) AppleWebKit/537.36 (KHTML, like Gecko) Chrome/85.0.4183.121 Safari/537.36",59,"[0.9, 0.5, 0.1]","[0.8, 0.4, 0.2]","[u'red', u'blue', u'black']","[u'left', u'middle', u'right']","[0.9, 0.5, 0.1]","[u'medium', u'low', u'high']","black",51,"right","high","False","False",268,3200,NA
"A5T9IFDZ3W4T6","Sun Oct 04 2020 13:04:52 GMT-0400 (Eastern Daylight Time)","Sun Oct 04 2020 13:13:37 GMT-0400 (Eastern Daylight Time)","Mozilla/5.0 (Windows NT 10.0; WOW64) AppleWebKit/537.36 (KHTML, like Gecko) Chrome/85.0.4183.121 Safari/537.36",60,"[0.9, 0.5, 0.1]","[0.8, 0.4, 0.2]","[u'red', u'blue', u'black']","[u'left', u'middle', u'right']","[0.9, 0.5, 0.1]","[u'medium', u'low', u'high']","black",51,"right","high","True","False",249,3300,NA
"A5T9IFDZ3W4T6","Sun Oct 04 2020 13:04:52 GMT-0400 (Eastern Daylight Time)","Sun Oct 04 2020 13:13:37 GMT-0400 (Eastern Daylight Time)","Mozilla/5.0 (Windows NT 10.0; WOW64) AppleWebKit/537.36 (KHTML, like Gecko) Chrome/85.0.4183.121 Safari/537.36",61,"[0.9, 0.5, 0.1]","[0.8, 0.4, 0.2]","[u'red', u'blue', u'black']","[u'left', u'middle', u'right']","[0.9, 0.5, 0.1]","[u'medium', u'low', u'high']","black",51,"right","high","True","False",74,3400,NA
"A5T9IFDZ3W4T6","Sun Oct 04 2020 13:04:52 GMT-0400 (Eastern Daylight Time)","Sun Oct 04 2020 13:13:37 GMT-0400 (Eastern Daylight Time)","Mozilla/5.0 (Windows NT 10.0; WOW64) AppleWebKit/537.36 (KHTML, like Gecko) Chrome/85.0.4183.121 Safari/537.36",62,"[0.9, 0.5, 0.1]","[0.8, 0.4, 0.2]","[u'red', u'blue', u'black']","[u'left', u'middle', u'right']","[0.9, 0.5, 0.1]","[u'medium', u'low', u'high']","black",51,"right","high","True","False",130,3500,NA
"A5T9IFDZ3W4T6","Sun Oct 04 2020 13:04:52 GMT-0400 (Eastern Daylight Time)","Sun Oct 04 2020 13:13:37 GMT-0400 (Eastern Daylight Time)","Mozilla/5.0 (Windows NT 10.0; WOW64) AppleWebKit/537.36 (KHTML, like Gecko) Chrome/85.0.4183.121 Safari/537.36",63,"[0.9, 0.5, 0.1]","[0.8, 0.4, 0.2]","[u'red', u'blue', u'black']","[u'left', u'middle', u'right']","[0.9, 0.5, 0.1]","[u'medium', u'low', u'high']","black",51,"right","high","True","True",215,3600,NA
"A5T9IFDZ3W4T6","Sun Oct 04 2020 13:04:52 GMT-0400 (Eastern Daylight Time)","Sun Oct 04 2020 13:13:37 GMT-0400 (Eastern Daylight Time)","Mozilla/5.0 (Windows NT 10.0; WOW64) AppleWebKit/537.36 (KHTML, like Gecko) Chrome/85.0.4183.121 Safari/537.36",64,"[0.9, 0.5, 0.1]","[0.8, 0.4, 0.2]","[u'red', u'blue', u'black']","[u'left', u'middle', u'right']","[0.9, 0.5, 0.1]","[u'low', u'high', u'medium']","black",51,"right","medium","True","False",212,3700,NA
"A5T9IFDZ3W4T6","Sun Oct 04 2020 13:04:52 GMT-0400 (Eastern Daylight Time)","Sun Oct 04 2020 13:13:37 GMT-0400 (Eastern Daylight Time)","Mozilla/5.0 (Windows NT 10.0; WOW64) AppleWebKit/537.36 (KHTML, like Gecko) Chrome/85.0.4183.121 Safari/537.36",65,"[0.9, 0.5, 0.1]","[0.8, 0.4, 0.2]","[u'red', u'blue', u'black']","[u'left', u'middle', u'right']","[0.9, 0.5, 0.1]","[u'low', u'high', u'medium']","black",51,"right","medium","False","False",251,3650,NA
"A5T9IFDZ3W4T6","Sun Oct 04 2020 13:04:52 GMT-0400 (Eastern Daylight Time)","Sun Oct 04 2020 13:13:37 GMT-0400 (Eastern Daylight Time)","Mozilla/5.0 (Windows NT 10.0; WOW64) AppleWebKit/537.36 (KHTML, like Gecko) Chrome/85.0.4183.121 Safari/537.36",66,"[0.9, 0.5, 0.1]","[0.8, 0.4, 0.2]","[u'red', u'blue', u'black']","[u'left', u'middle', u'right']","[0.9, 0.5, 0.1]","[u'low', u'high', u'medium']","black",51,"right","medium","False","False",46,3600,NA
"A5T9IFDZ3W4T6","Sun Oct 04 2020 13:04:52 GMT-0400 (Eastern Daylight Time)","Sun Oct 04 2020 13:13:37 GMT-0400 (Eastern Daylight Time)","Mozilla/5.0 (Windows NT 10.0; WOW64) AppleWebKit/537.36 (KHTML, like Gecko) Chrome/85.0.4183.121 Safari/537.36",67,"[0.9, 0.5, 0.1]","[0.8, 0.4, 0.2]","[u'red', u'blue', u'black']","[u'left', u'middle', u'right']","[0.9, 0.5, 0.1]","[u'low', u'high', u'medium']","red",49,"left","low","False","False",74,3550,NA
"A5T9IFDZ3W4T6","Sun Oct 04 2020 13:04:52 GMT-0400 (Eastern Daylight Time)","Sun Oct 04 2020 13:13:37 GMT-0400 (Eastern Daylight Time)","Mozilla/5.0 (Windows NT 10.0; WOW64) AppleWebKit/537.36 (KHTML, like Gecko) Chrome/85.0.4183.121 Safari/537.36",68,"[0.9, 0.5, 0.1]","[0.8, 0.4, 0.2]","[u'red', u'blue', u'black']","[u'left', u'middle', u'right']","[0.9, 0.5, 0.1]","[u'low', u'high', u'medium']","blue",50,"middle","high","True","False",125,3650,NA
"A5T9IFDZ3W4T6","Sun Oct 04 2020 13:04:52 GMT-0400 (Eastern Daylight Time)","Sun Oct 04 2020 13:13:37 GMT-0400 (Eastern Daylight Time)","Mozilla/5.0 (Windows NT 10.0; WOW64) AppleWebKit/537.36 (KHTML, like Gecko) Chrome/85.0.4183.121 Safari/537.36",69,"[0.9, 0.5, 0.1]","[0.8, 0.4, 0.2]","[u'red', u'blue', u'black']","[u'left', u'middle', u'right']","[0.9, 0.5, 0.1]","[u'low', u'high', u'medium']","blue",50,"middle","high","True","False",211,3750,NA
"A5T9IFDZ3W4T6","Sun Oct 04 2020 13:04:52 GMT-0400 (Eastern Daylight Time)","Sun Oct 04 2020 13:13:37 GMT-0400 (Eastern Daylight Time)","Mozilla/5.0 (Windows NT 10.0; WOW64) AppleWebKit/537.36 (KHTML, like Gecko) Chrome/85.0.4183.121 Safari/537.36",70,"[0.9, 0.5, 0.1]","[0.8, 0.4, 0.2]","[u'red', u'blue', u'black']","[u'left', u'middle', u'right']","[0.9, 0.5, 0.1]","[u'low', u'high', u'medium']","blue",50,"middle","high","False","False",205,3700,NA
"A5T9IFDZ3W4T6","Sun Oct 04 2020 13:04:52 GMT-0400 (Eastern Daylight Time)","Sun Oct 04 2020 13:13:37 GMT-0400 (Eastern Daylight Time)","Mozilla/5.0 (Windows NT 10.0; WOW64) AppleWebKit/537.36 (KHTML, like Gecko) Chrome/85.0.4183.121 Safari/537.36",71,"[0.9, 0.5, 0.1]","[0.8, 0.4, 0.2]","[u'red', u'blue', u'black']","[u'left', u'middle', u'right']","[0.9, 0.5, 0.1]","[u'low', u'high', u'medium']","blue",50,"middle","high","True","False",144,3800,NA
"A5T9IFDZ3W4T6","Sun Oct 04 2020 13:04:52 GMT-0400 (Eastern Daylight Time)","Sun Oct 04 2020 13:13:37 GMT-0400 (Eastern Daylight Time)","Mozilla/5.0 (Windows NT 10.0; WOW64) AppleWebKit/537.36 (KHTML, like Gecko) Chrome/85.0.4183.121 Safari/537.36",72,"[0.9, 0.5, 0.1]","[0.8, 0.4, 0.2]","[u'red', u'blue', u'black']","[u'left', u'middle', u'right']","[0.9, 0.5, 0.1]","[u'low', u'high', u'medium']","blue",50,"middle","high","True","False",157,3900,NA
"A5T9IFDZ3W4T6","Sun Oct 04 2020 13:04:52 GMT-0400 (Eastern Daylight Time)","Sun Oct 04 2020 13:13:37 GMT-0400 (Eastern Daylight Time)","Mozilla/5.0 (Windows NT 10.0; WOW64) AppleWebKit/537.36 (KHTML, like Gecko) Chrome/85.0.4183.121 Safari/537.36",73,"[0.9, 0.5, 0.1]","[0.8, 0.4, 0.2]","[u'red', u'blue', u'black']","[u'left', u'middle', u'right']","[0.9, 0.5, 0.1]","[u'low', u'high', u'medium']","blue",50,"middle","high","True","False",168,4000,NA
"A5T9IFDZ3W4T6","Sun Oct 04 2020 13:04:52 GMT-0400 (Eastern Daylight Time)","Sun Oct 04 2020 13:13:37 GMT-0400 (Eastern Daylight Time)","Mozilla/5.0 (Windows NT 10.0; WOW64) AppleWebKit/537.36 (KHTML, like Gecko) Chrome/85.0.4183.121 Safari/537.36",74,"[0.9, 0.5, 0.1]","[0.8, 0.4, 0.2]","[u'red', u'blue', u'black']","[u'left', u'middle', u'right']","[0.9, 0.5, 0.1]","[u'low', u'high', u'medium']","blue",50,"middle","high","False","False",178,3950,NA
"A5T9IFDZ3W4T6","Sun Oct 04 2020 13:04:52 GMT-0400 (Eastern Daylight Time)","Sun Oct 04 2020 13:13:37 GMT-0400 (Eastern Daylight Time)","Mozilla/5.0 (Windows NT 10.0; WOW64) AppleWebKit/537.36 (KHTML, like Gecko) Chrome/85.0.4183.121 Safari/537.36",75,"[0.9, 0.5, 0.1]","[0.8, 0.4, 0.2]","[u'red', u'blue', u'black']","[u'left', u'middle', u'right']","[0.9, 0.5, 0.1]","[u'low', u'high', u'medium']","red",49,"left","low","False","False",89,3900,NA
"A5T9IFDZ3W4T6","Sun Oct 04 2020 13:04:52 GMT-0400 (Eastern Daylight Time)","Sun Oct 04 2020 13:13:37 GMT-0400 (Eastern Daylight Time)","Mozilla/5.0 (Windows NT 10.0; WOW64) AppleWebKit/537.36 (KHTML, like Gecko) Chrome/85.0.4183.121 Safari/537.36",76,"[0.9, 0.5, 0.1]","[0.8, 0.4, 0.2]","[u'red', u'blue', u'black']","[u'left', u'middle', u'right']","[0.9, 0.5, 0.1]","[u'low', u'high', u'medium']","blue",50,"middle","high","True","False",76,4000,NA
"A5T9IFDZ3W4T6","Sun Oct 04 2020 13:04:52 GMT-0400 (Eastern Daylight Time)","Sun Oct 04 2020 13:13:37 GMT-0400 (Eastern Daylight Time)","Mozilla/5.0 (Windows NT 10.0; WOW64) AppleWebKit/537.36 (KHTML, like Gecko) Chrome/85.0.4183.121 Safari/537.36",77,"[0.9, 0.5, 0.1]","[0.8, 0.4, 0.2]","[u'red', u'blue', u'black']","[u'left', u'middle', u'right']","[0.9, 0.5, 0.1]","[u'low', u'high', u'medium']","blue",50,"middle","high","True","True",228,4100,NA
"A5T9IFDZ3W4T6","Sun Oct 04 2020 13:04:52 GMT-0400 (Eastern Daylight Time)","Sun Oct 04 2020 13:13:37 GMT-0400 (Eastern Daylight Time)","Mozilla/5.0 (Windows NT 10.0; WOW64) AppleWebKit/537.36 (KHTML, like Gecko) Chrome/85.0.4183.121 Safari/537.36",78,"[0.9, 0.5, 0.1]","[0.8, 0.4, 0.2]","[u'red', u'blue', u'black']","[u'left', u'middle', u'right']","[0.9, 0.5, 0.1]","[u'low', u'medium', u'high']","blue",50,"middle","medium","False","False",327,4050,NA
"A5T9IFDZ3W4T6","Sun Oct 04 2020 13:04:52 GMT-0400 (Eastern Daylight Time)","Sun Oct 04 2020 13:13:37 GMT-0400 (Eastern Daylight Time)","Mozilla/5.0 (Windows NT 10.0; WOW64) AppleWebKit/537.36 (KHTML, like Gecko) Chrome/85.0.4183.121 Safari/537.36",79,"[0.9, 0.5, 0.1]","[0.8, 0.4, 0.2]","[u'red', u'blue', u'black']","[u'left', u'middle', u'right']","[0.9, 0.5, 0.1]","[u'low', u'medium', u'high']","blue",50,"middle","medium","False","False",78,4000,NA
"A5T9IFDZ3W4T6","Sun Oct 04 2020 13:04:52 GMT-0400 (Eastern Daylight Time)","Sun Oct 04 2020 13:13:37 GMT-0400 (Eastern Daylight Time)","Mozilla/5.0 (Windows NT 10.0; WOW64) AppleWebKit/537.36 (KHTML, like Gecko) Chrome/85.0.4183.121 Safari/537.36",80,"[0.9, 0.5, 0.1]","[0.8, 0.4, 0.2]","[u'red', u'blue', u'black']","[u'left', u'middle', u'right']","[0.9, 0.5, 0.1]","[u'low', u'medium', u'high']","black",51,"right","high","True","False",140,4100,NA
"A5T9IFDZ3W4T6","Sun Oct 04 2020 13:04:52 GMT-0400 (Eastern Daylight Time)","Sun Oct 04 2020 13:13:37 GMT-0400 (Eastern Daylight Time)","Mozilla/5.0 (Windows NT 10.0; WOW64) AppleWebKit/537.36 (KHTML, like Gecko) Chrome/85.0.4183.121 Safari/537.36",81,"[0.9, 0.5, 0.1]","[0.8, 0.4, 0.2]","[u'red', u'blue', u'black']","[u'left', u'middle', u'right']","[0.8, 0.4, 0.2]","[u'medium', u'high', u'low']","red",49,"left","medium","True","False",1144,4200,NA
"A5T9IFDZ3W4T6","Sun Oct 04 2020 13:04:52 GMT-0400 (Eastern Daylight Time)","Sun Oct 04 2020 13:13:37 GMT-0400 (Eastern Daylight Time)","Mozilla/5.0 (Windows NT 10.0; WOW64) AppleWebKit/537.36 (KHTML, like Gecko) Chrome/85.0.4183.121 Safari/537.36",82,"[0.9, 0.5, 0.1]","[0.8, 0.4, 0.2]","[u'red', u'blue', u'black']","[u'left', u'middle', u'right']","[0.8, 0.4, 0.2]","[u'medium', u'high', u'low']","red",49,"left","medium","False","False",185,4150,NA
"A5T9IFDZ3W4T6","Sun Oct 04 2020 13:04:52 GMT-0400 (Eastern Daylight Time)","Sun Oct 04 2020 13:13:37 GMT-0400 (Eastern Daylight Time)","Mozilla/5.0 (Windows NT 10.0; WOW64) AppleWebKit/537.36 (KHTML, like Gecko) Chrome/85.0.4183.121 Safari/537.36",83,"[0.9, 0.5, 0.1]","[0.8, 0.4, 0.2]","[u'red', u'blue', u'black']","[u'left', u'middle', u'right']","[0.8, 0.4, 0.2]","[u'medium', u'high', u'low']","red",49,"left","medium","True","False",245,4250,NA
"A5T9IFDZ3W4T6","Sun Oct 04 2020 13:04:52 GMT-0400 (Eastern Daylight Time)","Sun Oct 04 2020 13:13:37 GMT-0400 (Eastern Daylight Time)","Mozilla/5.0 (Windows NT 10.0; WOW64) AppleWebKit/537.36 (KHTML, like Gecko) Chrome/85.0.4183.121 Safari/537.36",84,"[0.9, 0.5, 0.1]","[0.8, 0.4, 0.2]","[u'red', u'blue', u'black']","[u'left', u'middle', u'right']","[0.8, 0.4, 0.2]","[u'medium', u'high', u'low']","red",49,"left","medium","False","False",264,4200,NA
"A5T9IFDZ3W4T6","Sun Oct 04 2020 13:04:52 GMT-0400 (Eastern Daylight Time)","Sun Oct 04 2020 13:13:37 GMT-0400 (Eastern Daylight Time)","Mozilla/5.0 (Windows NT 10.0; WOW64) AppleWebKit/537.36 (KHTML, like Gecko) Chrome/85.0.4183.121 Safari/537.36",85,"[0.9, 0.5, 0.1]","[0.8, 0.4, 0.2]","[u'red', u'blue', u'black']","[u'left', u'middle', u'right']","[0.8, 0.4, 0.2]","[u'medium', u'high', u'low']","black",51,"right","low","False","False",323,4150,NA
"A5T9IFDZ3W4T6","Sun Oct 04 2020 13:04:52 GMT-0400 (Eastern Daylight Time)","Sun Oct 04 2020 13:13:37 GMT-0400 (Eastern Daylight Time)","Mozilla/5.0 (Windows NT 10.0; WOW64) AppleWebKit/537.36 (KHTML, like Gecko) Chrome/85.0.4183.121 Safari/537.36",86,"[0.9, 0.5, 0.1]","[0.8, 0.4, 0.2]","[u'red', u'blue', u'black']","[u'left', u'middle', u'right']","[0.8, 0.4, 0.2]","[u'medium', u'high', u'low']","blue",50,"middle","high","True","False",115,4250,NA
"A5T9IFDZ3W4T6","Sun Oct 04 2020 13:04:52 GMT-0400 (Eastern Daylight Time)","Sun Oct 04 2020 13:13:37 GMT-0400 (Eastern Daylight Time)","Mozilla/5.0 (Windows NT 10.0; WOW64) AppleWebKit/537.36 (KHTML, like Gecko) Chrome/85.0.4183.121 Safari/537.36",87,"[0.9, 0.5, 0.1]","[0.8, 0.4, 0.2]","[u'red', u'blue', u'black']","[u'left', u'middle', u'right']","[0.8, 0.4, 0.2]","[u'medium', u'high', u'low']","blue",50,"middle","high","True","False",256,4350,NA
"A5T9IFDZ3W4T6","Sun Oct 04 2020 13:04:52 GMT-0400 (Eastern Daylight Time)","Sun Oct 04 2020 13:13:37 GMT-0400 (Eastern Daylight Time)","Mozilla/5.0 (Windows NT 10.0; WOW64) AppleWebKit/537.36 (KHTML, like Gecko) Chrome/85.0.4183.121 Safari/537.36",88,"[0.9, 0.5, 0.1]","[0.8, 0.4, 0.2]","[u'red', u'blue', u'black']","[u'left', u'middle', u'right']","[0.8, 0.4, 0.2]","[u'medium', u'high', u'low']","blue",50,"middle","high","True","False",179,4450,NA
"A5T9IFDZ3W4T6","Sun Oct 04 2020 13:04:52 GMT-0400 (Eastern Daylight Time)","Sun Oct 04 2020 13:13:37 GMT-0400 (Eastern Daylight Time)","Mozilla/5.0 (Windows NT 10.0; WOW64) AppleWebKit/537.36 (KHTML, like Gecko) Chrome/85.0.4183.121 Safari/537.36",89,"[0.9, 0.5, 0.1]","[0.8, 0.4, 0.2]","[u'red', u'blue', u'black']","[u'left', u'middle', u'right']","[0.8, 0.4, 0.2]","[u'medium', u'high', u'low']","blue",50,"middle","high","True","False",202,4550,NA
"A5T9IFDZ3W4T6","Sun Oct 04 2020 13:04:52 GMT-0400 (Eastern Daylight Time)","Sun Oct 04 2020 13:13:37 GMT-0400 (Eastern Daylight Time)","Mozilla/5.0 (Windows NT 10.0; WOW64) AppleWebKit/537.36 (KHTML, like Gecko) Chrome/85.0.4183.121 Safari/537.36",90,"[0.9, 0.5, 0.1]","[0.8, 0.4, 0.2]","[u'red', u'blue', u'black']","[u'left', u'middle', u'right']","[0.8, 0.4, 0.2]","[u'medium', u'high', u'low']","black",51,"right","low","True","False",195,4650,NA
"A5T9IFDZ3W4T6","Sun Oct 04 2020 13:04:52 GMT-0400 (Eastern Daylight Time)","Sun Oct 04 2020 13:13:37 GMT-0400 (Eastern Daylight Time)","Mozilla/5.0 (Windows NT 10.0; WOW64) AppleWebKit/537.36 (KHTML, like Gecko) Chrome/85.0.4183.121 Safari/537.36",91,"[0.9, 0.5, 0.1]","[0.8, 0.4, 0.2]","[u'red', u'blue', u'black']","[u'left', u'middle', u'right']","[0.8, 0.4, 0.2]","[u'medium', u'high', u'low']","black",51,"right","low","True","False",282,4750,NA
"A5T9IFDZ3W4T6","Sun Oct 04 2020 13:04:52 GMT-0400 (Eastern Daylight Time)","Sun Oct 04 2020 13:13:37 GMT-0400 (Eastern Daylight Time)","Mozilla/5.0 (Windows NT 10.0; WOW64) AppleWebKit/537.36 (KHTML, like Gecko) Chrome/85.0.4183.121 Safari/537.36",92,"[0.9, 0.5, 0.1]","[0.8, 0.4, 0.2]","[u'red', u'blue', u'black']","[u'left', u'middle', u'right']","[0.8, 0.4, 0.2]","[u'medium', u'high', u'low']","black",51,"right","low","False","False",289,4700,NA
"A5T9IFDZ3W4T6","Sun Oct 04 2020 13:04:52 GMT-0400 (Eastern Daylight Time)","Sun Oct 04 2020 13:13:37 GMT-0400 (Eastern Daylight Time)","Mozilla/5.0 (Windows NT 10.0; WOW64) AppleWebKit/537.36 (KHTML, like Gecko) Chrome/85.0.4183.121 Safari/537.36",93,"[0.9, 0.5, 0.1]","[0.8, 0.4, 0.2]","[u'red', u'blue', u'black']","[u'left', u'middle', u'right']","[0.8, 0.4, 0.2]","[u'medium', u'high', u'low']","black",51,"right","low","False","False",29,4650,NA
"A5T9IFDZ3W4T6","Sun Oct 04 2020 13:04:52 GMT-0400 (Eastern Daylight Time)","Sun Oct 04 2020 13:13:37 GMT-0400 (Eastern Daylight Time)","Mozilla/5.0 (Windows NT 10.0; WOW64) AppleWebKit/537.36 (KHTML, like Gecko) Chrome/85.0.4183.121 Safari/537.36",94,"[0.9, 0.5, 0.1]","[0.8, 0.4, 0.2]","[u'red', u'blue', u'black']","[u'left', u'middle', u'right']","[0.8, 0.4, 0.2]","[u'medium', u'high', u'low']","blue",50,"middle","high","True","False",193,4750,NA
"A5T9IFDZ3W4T6","Sun Oct 04 2020 13:04:52 GMT-0400 (Eastern Daylight Time)","Sun Oct 04 2020 13:13:37 GMT-0400 (Eastern Daylight Time)","Mozilla/5.0 (Windows NT 10.0; WOW64) AppleWebKit/537.36 (KHTML, like Gecko) Chrome/85.0.4183.121 Safari/537.36",95,"[0.9, 0.5, 0.1]","[0.8, 0.4, 0.2]","[u'red', u'blue', u'black']","[u'left', u'middle', u'right']","[0.8, 0.4, 0.2]","[u'medium', u'high', u'low']","blue",50,"middle","high","False","False",277,4700,NA
"A5T9IFDZ3W4T6","Sun Oct 04 2020 13:04:52 GMT-0400 (Eastern Daylight Time)","Sun Oct 04 2020 13:13:37 GMT-0400 (Eastern Daylight Time)","Mozilla/5.0 (Windows NT 10.0; WOW64) AppleWebKit/537.36 (KHTML, like Gecko) Chrome/85.0.4183.121 Safari/537.36",96,"[0.9, 0.5, 0.1]","[0.8, 0.4, 0.2]","[u'red', u'blue', u'black']","[u'left', u'middle', u'right']","[0.8, 0.4, 0.2]","[u'medium', u'high', u'low']","blue",50,"middle","high","True","False",367,4800,NA
"A5T9IFDZ3W4T6","Sun Oct 04 2020 13:04:52 GMT-0400 (Eastern Daylight Time)","Sun Oct 04 2020 13:13:37 GMT-0400 (Eastern Daylight Time)","Mozilla/5.0 (Windows NT 10.0; WOW64) AppleWebKit/537.36 (KHTML, like Gecko) Chrome/85.0.4183.121 Safari/537.36",97,"[0.9, 0.5, 0.1]","[0.8, 0.4, 0.2]","[u'red', u'blue', u'black']","[u'left', u'middle', u'right']","[0.8, 0.4, 0.2]","[u'medium', u'high', u'low']","blue",50,"middle","high","True","False",498,4900,NA
"A5T9IFDZ3W4T6","Sun Oct 04 2020 13:04:52 GMT-0400 (Eastern Daylight Time)","Sun Oct 04 2020 13:13:37 GMT-0400 (Eastern Daylight Time)","Mozilla/5.0 (Windows NT 10.0; WOW64) AppleWebKit/537.36 (KHTML, like Gecko) Chrome/85.0.4183.121 Safari/537.36",98,"[0.9, 0.5, 0.1]","[0.8, 0.4, 0.2]","[u'red', u'blue', u'black']","[u'left', u'middle', u'right']","[0.8, 0.4, 0.2]","[u'medium', u'high', u'low']","blue",50,"middle","high","True","False",308,5000,NA
"A5T9IFDZ3W4T6","Sun Oct 04 2020 13:04:52 GMT-0400 (Eastern Daylight Time)","Sun Oct 04 2020 13:13:37 GMT-0400 (Eastern Daylight Time)","Mozilla/5.0 (Windows NT 10.0; WOW64) AppleWebKit/537.36 (KHTML, like Gecko) Chrome/85.0.4183.121 Safari/537.36",99,"[0.9, 0.5, 0.1]","[0.8, 0.4, 0.2]","[u'red', u'blue', u'black']","[u'left', u'middle', u'right']","[0.8, 0.4, 0.2]","[u'medium', u'high', u'low']","blue",50,"middle","high","True","False",432,5100,NA
"A5T9IFDZ3W4T6","Sun Oct 04 2020 13:04:52 GMT-0400 (Eastern Daylight Time)","Sun Oct 04 2020 13:13:37 GMT-0400 (Eastern Daylight Time)","Mozilla/5.0 (Windows NT 10.0; WOW64) AppleWebKit/537.36 (KHTML, like Gecko) Chrome/85.0.4183.121 Safari/537.36",100,"[0.9, 0.5, 0.1]","[0.8, 0.4, 0.2]","[u'red', u'blue', u'black']","[u'left', u'middle', u'right']","[0.8, 0.4, 0.2]","[u'medium', u'high', u'low']","blue",50,"middle","high","True","False",431,5200,NA
"A5T9IFDZ3W4T6","Sun Oct 04 2020 13:04:52 GMT-0400 (Eastern Daylight Time)","Sun Oct 04 2020 13:13:37 GMT-0400 (Eastern Daylight Time)","Mozilla/5.0 (Windows NT 10.0; WOW64) AppleWebKit/537.36 (KHTML, like Gecko) Chrome/85.0.4183.121 Safari/537.36",101,"[0.9, 0.5, 0.1]","[0.8, 0.4, 0.2]","[u'red', u'blue', u'black']","[u'left', u'middle', u'right']","[0.8, 0.4, 0.2]","[u'medium', u'high', u'low']","blue",50,"middle","high","True","False",260,5300,NA
"A5T9IFDZ3W4T6","Sun Oct 04 2020 13:04:52 GMT-0400 (Eastern Daylight Time)","Sun Oct 04 2020 13:13:37 GMT-0400 (Eastern Daylight Time)","Mozilla/5.0 (Windows NT 10.0; WOW64) AppleWebKit/537.36 (KHTML, like Gecko) Chrome/85.0.4183.121 Safari/537.36",102,"[0.9, 0.5, 0.1]","[0.8, 0.4, 0.2]","[u'red', u'blue', u'black']","[u'left', u'middle', u'right']","[0.8, 0.4, 0.2]","[u'medium', u'high', u'low']","blue",50,"middle","high","False","True",348,5250,NA
"A5T9IFDZ3W4T6","Sun Oct 04 2020 13:04:52 GMT-0400 (Eastern Daylight Time)","Sun Oct 04 2020 13:13:37 GMT-0400 (Eastern Daylight Time)","Mozilla/5.0 (Windows NT 10.0; WOW64) AppleWebKit/537.36 (KHTML, like Gecko) Chrome/85.0.4183.121 Safari/537.36",103,"[0.9, 0.5, 0.1]","[0.8, 0.4, 0.2]","[u'red', u'blue', u'black']","[u'left', u'middle', u'right']","[0.8, 0.4, 0.2]","[u'high', u'medium', u'low']","red",49,"left","high","True","False",199,5350,NA
"A5T9IFDZ3W4T6","Sun Oct 04 2020 13:04:52 GMT-0400 (Eastern Daylight Time)","Sun Oct 04 2020 13:13:37 GMT-0400 (Eastern Daylight Time)","Mozilla/5.0 (Windows NT 10.0; WOW64) AppleWebKit/537.36 (KHTML, like Gecko) Chrome/85.0.4183.121 Safari/537.36",104,"[0.9, 0.5, 0.1]","[0.8, 0.4, 0.2]","[u'red', u'blue', u'black']","[u'left', u'middle', u'right']","[0.8, 0.4, 0.2]","[u'high', u'medium', u'low']","red",49,"left","high","True","False",143,5450,NA
"A5T9IFDZ3W4T6","Sun Oct 04 2020 13:04:52 GMT-0400 (Eastern Daylight Time)","Sun Oct 04 2020 13:13:37 GMT-0400 (Eastern Daylight Time)","Mozilla/5.0 (Windows NT 10.0; WOW64) AppleWebKit/537.36 (KHTML, like Gecko) Chrome/85.0.4183.121 Safari/537.36",105,"[0.9, 0.5, 0.1]","[0.8, 0.4, 0.2]","[u'red', u'blue', u'black']","[u'left', u'middle', u'right']","[0.8, 0.4, 0.2]","[u'high', u'medium', u'low']","red",49,"left","high","True","False",31,5550,NA
"A5T9IFDZ3W4T6","Sun Oct 04 2020 13:04:52 GMT-0400 (Eastern Daylight Time)","Sun Oct 04 2020 13:13:37 GMT-0400 (Eastern Daylight Time)","Mozilla/5.0 (Windows NT 10.0; WOW64) AppleWebKit/537.36 (KHTML, like Gecko) Chrome/85.0.4183.121 Safari/537.36",106,"[0.9, 0.5, 0.1]","[0.8, 0.4, 0.2]","[u'red', u'blue', u'black']","[u'left', u'middle', u'right']","[0.8, 0.4, 0.2]","[u'high', u'medium', u'low']","red",49,"left","high","True","False",919,5650,NA
"A5T9IFDZ3W4T6","Sun Oct 04 2020 13:04:52 GMT-0400 (Eastern Daylight Time)","Sun Oct 04 2020 13:13:37 GMT-0400 (Eastern Daylight Time)","Mozilla/5.0 (Windows NT 10.0; WOW64) AppleWebKit/537.36 (KHTML, like Gecko) Chrome/85.0.4183.121 Safari/537.36",107,"[0.9, 0.5, 0.1]","[0.8, 0.4, 0.2]","[u'red', u'blue', u'black']","[u'left', u'middle', u'right']","[0.8, 0.4, 0.2]","[u'high', u'medium', u'low']","red",49,"left","high","True","False",317,5750,NA
"A5T9IFDZ3W4T6","Sun Oct 04 2020 13:04:52 GMT-0400 (Eastern Daylight Time)","Sun Oct 04 2020 13:13:37 GMT-0400 (Eastern Daylight Time)","Mozilla/5.0 (Windows NT 10.0; WOW64) AppleWebKit/537.36 (KHTML, like Gecko) Chrome/85.0.4183.121 Safari/537.36",108,"[0.9, 0.5, 0.1]","[0.8, 0.4, 0.2]","[u'red', u'blue', u'black']","[u'left', u'middle', u'right']","[0.8, 0.4, 0.2]","[u'high', u'medium', u'low']","red",49,"left","high","True","False",170,5850,NA
"A5T9IFDZ3W4T6","Sun Oct 04 2020 13:04:52 GMT-0400 (Eastern Daylight Time)","Sun Oct 04 2020 13:13:37 GMT-0400 (Eastern Daylight Time)","Mozilla/5.0 (Windows NT 10.0; WOW64) AppleWebKit/537.36 (KHTML, like Gecko) Chrome/85.0.4183.121 Safari/537.36",109,"[0.9, 0.5, 0.1]","[0.8, 0.4, 0.2]","[u'red', u'blue', u'black']","[u'left', u'middle', u'right']","[0.8, 0.4, 0.2]","[u'high', u'medium', u'low']","red",49,"left","high","True","False",335,5950,NA
"A5T9IFDZ3W4T6","Sun Oct 04 2020 13:04:52 GMT-0400 (Eastern Daylight Time)","Sun Oct 04 2020 13:13:37 GMT-0400 (Eastern Daylight Time)","Mozilla/5.0 (Windows NT 10.0; WOW64) AppleWebKit/537.36 (KHTML, like Gecko) Chrome/85.0.4183.121 Safari/537.36",110,"[0.9, 0.5, 0.1]","[0.8, 0.4, 0.2]","[u'red', u'blue', u'black']","[u'left', u'middle', u'right']","[0.8, 0.4, 0.2]","[u'high', u'medium', u'low']","blue",50,"middle","medium","False","False",442,5900,NA
"A5T9IFDZ3W4T6","Sun Oct 04 2020 13:04:52 GMT-0400 (Eastern Daylight Time)","Sun Oct 04 2020 13:13:37 GMT-0400 (Eastern Daylight Time)","Mozilla/5.0 (Windows NT 10.0; WOW64) AppleWebKit/537.36 (KHTML, like Gecko) Chrome/85.0.4183.121 Safari/537.36",111,"[0.9, 0.5, 0.1]","[0.8, 0.4, 0.2]","[u'red', u'blue', u'black']","[u'left', u'middle', u'right']","[0.8, 0.4, 0.2]","[u'high', u'medium', u'low']","red",49,"left","high","True","False",334,6000,NA
"A5T9IFDZ3W4T6","Sun Oct 04 2020 13:04:52 GMT-0400 (Eastern Daylight Time)","Sun Oct 04 2020 13:13:37 GMT-0400 (Eastern Daylight Time)","Mozilla/5.0 (Windows NT 10.0; WOW64) AppleWebKit/537.36 (KHTML, like Gecko) Chrome/85.0.4183.121 Safari/537.36",112,"[0.9, 0.5, 0.1]","[0.8, 0.4, 0.2]","[u'red', u'blue', u'black']","[u'left', u'middle', u'right']","[0.8, 0.4, 0.2]","[u'high', u'medium', u'low']","red",49,"left","high","False","True",468,5950,NA
"A5T9IFDZ3W4T6","Sun Oct 04 2020 13:04:52 GMT-0400 (Eastern Daylight Time)","Sun Oct 04 2020 13:13:37 GMT-0400 (Eastern Daylight Time)","Mozilla/5.0 (Windows NT 10.0; WOW64) AppleWebKit/537.36 (KHTML, like Gecko) Chrome/85.0.4183.121 Safari/537.36",113,"[0.9, 0.5, 0.1]","[0.8, 0.4, 0.2]","[u'red', u'blue', u'black']","[u'left', u'middle', u'right']","[0.8, 0.4, 0.2]","[u'medium', u'low', u'high']","black",51,"right","high","True","False",236,6050,NA
"A5T9IFDZ3W4T6","Sun Oct 04 2020 13:04:52 GMT-0400 (Eastern Daylight Time)","Sun Oct 04 2020 13:13:37 GMT-0400 (Eastern Daylight Time)","Mozilla/5.0 (Windows NT 10.0; WOW64) AppleWebKit/537.36 (KHTML, like Gecko) Chrome/85.0.4183.121 Safari/537.36",114,"[0.9, 0.5, 0.1]","[0.8, 0.4, 0.2]","[u'red', u'blue', u'black']","[u'left', u'middle', u'right']","[0.8, 0.4, 0.2]","[u'medium', u'low', u'high']","black",51,"right","high","False","False",314,6000,NA
"A5T9IFDZ3W4T6","Sun Oct 04 2020 13:04:52 GMT-0400 (Eastern Daylight Time)","Sun Oct 04 2020 13:13:37 GMT-0400 (Eastern Daylight Time)","Mozilla/5.0 (Windows NT 10.0; WOW64) AppleWebKit/537.36 (KHTML, like Gecko) Chrome/85.0.4183.121 Safari/537.36",115,"[0.9, 0.5, 0.1]","[0.8, 0.4, 0.2]","[u'red', u'blue', u'black']","[u'left', u'middle', u'right']","[0.8, 0.4, 0.2]","[u'medium', u'low', u'high']","red",49,"left","medium","False","False",230,5950,NA
"A5T9IFDZ3W4T6","Sun Oct 04 2020 13:04:52 GMT-0400 (Eastern Daylight Time)","Sun Oct 04 2020 13:13:37 GMT-0400 (Eastern Daylight Time)","Mozilla/5.0 (Windows NT 10.0; WOW64) AppleWebKit/537.36 (KHTML, like Gecko) Chrome/85.0.4183.121 Safari/537.36",116,"[0.9, 0.5, 0.1]","[0.8, 0.4, 0.2]","[u'red', u'blue', u'black']","[u'left', u'middle', u'right']","[0.8, 0.4, 0.2]","[u'medium', u'low', u'high']","blue",50,"middle","low","False","False",209,5900,NA
"A5T9IFDZ3W4T6","Sun Oct 04 2020 13:04:52 GMT-0400 (Eastern Daylight Time)","Sun Oct 04 2020 13:13:37 GMT-0400 (Eastern Daylight Time)","Mozilla/5.0 (Windows NT 10.0; WOW64) AppleWebKit/537.36 (KHTML, like Gecko) Chrome/85.0.4183.121 Safari/537.36",117,"[0.9, 0.5, 0.1]","[0.8, 0.4, 0.2]","[u'red', u'blue', u'black']","[u'left', u'middle', u'right']","[0.8, 0.4, 0.2]","[u'medium', u'low', u'high']","black",51,"right","high","False","False",219,5850,NA
"A5T9IFDZ3W4T6","Sun Oct 04 2020 13:04:52 GMT-0400 (Eastern Daylight Time)","Sun Oct 04 2020 13:13:37 GMT-0400 (Eastern Daylight Time)","Mozilla/5.0 (Windows NT 10.0; WOW64) AppleWebKit/537.36 (KHTML, like Gecko) Chrome/85.0.4183.121 Safari/537.36",118,"[0.9, 0.5, 0.1]","[0.8, 0.4, 0.2]","[u'red', u'blue', u'black']","[u'left', u'middle', u'right']","[0.8, 0.4, 0.2]","[u'medium', u'low', u'high']","black",51,"right","high","True","False",197,5950,NA
"A5T9IFDZ3W4T6","Sun Oct 04 2020 13:04:52 GMT-0400 (Eastern Daylight Time)","Sun Oct 04 2020 13:13:37 GMT-0400 (Eastern Daylight Time)","Mozilla/5.0 (Windows NT 10.0; WOW64) AppleWebKit/537.36 (KHTML, like Gecko) Chrome/85.0.4183.121 Safari/537.36",119,"[0.9, 0.5, 0.1]","[0.8, 0.4, 0.2]","[u'red', u'blue', u'black']","[u'left', u'middle', u'right']","[0.8, 0.4, 0.2]","[u'medium', u'low', u'high']","black",51,"right","high","True","False",200,6050,NA
"A5T9IFDZ3W4T6","Sun Oct 04 2020 13:04:52 GMT-0400 (Eastern Daylight Time)","Sun Oct 04 2020 13:13:37 GMT-0400 (Eastern Daylight Time)","Mozilla/5.0 (Windows NT 10.0; WOW64) AppleWebKit/537.36 (KHTML, like Gecko) Chrome/85.0.4183.121 Safari/537.36",120,"[0.9, 0.5, 0.1]","[0.8, 0.4, 0.2]","[u'red', u'blue', u'black']","[u'left', u'middle', u'right']","[0.8, 0.4, 0.2]","[u'medium', u'low', u'high']","black",51,"right","high","True","False",299,6150,NA
"A5T9IFDZ3W4T6","Sun Oct 04 2020 13:04:52 GMT-0400 (Eastern Daylight Time)","Sun Oct 04 2020 13:13:37 GMT-0400 (Eastern Daylight Time)","Mozilla/5.0 (Windows NT 10.0; WOW64) AppleWebKit/537.36 (KHTML, like Gecko) Chrome/85.0.4183.121 Safari/537.36",121,"[0.9, 0.5, 0.1]","[0.8, 0.4, 0.2]","[u'red', u'blue', u'black']","[u'left', u'middle', u'right']","[0.8, 0.4, 0.2]","[u'high', u'low', u'medium']","black",51,"right","medium","True","False",280,6250,NA
"A5T9IFDZ3W4T6","Sun Oct 04 2020 13:04:52 GMT-0400 (Eastern Daylight Time)","Sun Oct 04 2020 13:13:37 GMT-0400 (Eastern Daylight Time)","Mozilla/5.0 (Windows NT 10.0; WOW64) AppleWebKit/537.36 (KHTML, like Gecko) Chrome/85.0.4183.121 Safari/537.36",122,"[0.9, 0.5, 0.1]","[0.8, 0.4, 0.2]","[u'red', u'blue', u'black']","[u'left', u'middle', u'right']","[0.8, 0.4, 0.2]","[u'high', u'low', u'medium']","black",51,"right","medium","False","False",308,6200,NA
"A5T9IFDZ3W4T6","Sun Oct 04 2020 13:04:52 GMT-0400 (Eastern Daylight Time)","Sun Oct 04 2020 13:13:37 GMT-0400 (Eastern Daylight Time)","Mozilla/5.0 (Windows NT 10.0; WOW64) AppleWebKit/537.36 (KHTML, like Gecko) Chrome/85.0.4183.121 Safari/537.36",123,"[0.9, 0.5, 0.1]","[0.8, 0.4, 0.2]","[u'red', u'blue', u'black']","[u'left', u'middle', u'right']","[0.8, 0.4, 0.2]","[u'high', u'low', u'medium']","black",51,"right","medium","False","False",143,6150,NA
"A5T9IFDZ3W4T6","Sun Oct 04 2020 13:04:52 GMT-0400 (Eastern Daylight Time)","Sun Oct 04 2020 13:13:37 GMT-0400 (Eastern Daylight Time)","Mozilla/5.0 (Windows NT 10.0; WOW64) AppleWebKit/537.36 (KHTML, like Gecko) Chrome/85.0.4183.121 Safari/537.36",124,"[0.9, 0.5, 0.1]","[0.8, 0.4, 0.2]","[u'red', u'blue', u'black']","[u'left', u'middle', u'right']","[0.8, 0.4, 0.2]","[u'high', u'low', u'medium']","red",49,"left","high","False","False",169,6100,NA
"A5T9IFDZ3W4T6","Sun Oct 04 2020 13:04:52 GMT-0400 (Eastern Daylight Time)","Sun Oct 04 2020 13:13:37 GMT-0400 (Eastern Daylight Time)","Mozilla/5.0 (Windows NT 10.0; WOW64) AppleWebKit/537.36 (KHTML, like Gecko) Chrome/85.0.4183.121 Safari/537.36",125,"[0.9, 0.5, 0.1]","[0.8, 0.4, 0.2]","[u'red', u'blue', u'black']","[u'left', u'middle', u'right']","[0.8, 0.4, 0.2]","[u'high', u'low', u'medium']","red",49,"left","high","True","False",194,6200,NA
"A5T9IFDZ3W4T6","Sun Oct 04 2020 13:04:52 GMT-0400 (Eastern Daylight Time)","Sun Oct 04 2020 13:13:37 GMT-0400 (Eastern Daylight Time)","Mozilla/5.0 (Windows NT 10.0; WOW64) AppleWebKit/537.36 (KHTML, like Gecko) Chrome/85.0.4183.121 Safari/537.36",126,"[0.9, 0.5, 0.1]","[0.8, 0.4, 0.2]","[u'red', u'blue', u'black']","[u'left', u'middle', u'right']","[0.8, 0.4, 0.2]","[u'high', u'low', u'medium']","red",49,"left","high","True","False",131,6300,NA
"A5T9IFDZ3W4T6","Sun Oct 04 2020 13:04:52 GMT-0400 (Eastern Daylight Time)","Sun Oct 04 2020 13:13:37 GMT-0400 (Eastern Daylight Time)","Mozilla/5.0 (Windows NT 10.0; WOW64) AppleWebKit/537.36 (KHTML, like Gecko) Chrome/85.0.4183.121 Safari/537.36",127,"[0.9, 0.5, 0.1]","[0.8, 0.4, 0.2]","[u'red', u'blue', u'black']","[u'left', u'middle', u'right']","[0.8, 0.4, 0.2]","[u'high', u'low', u'medium']","red",49,"left","high","True","False",209,6400,NA
"A5T9IFDZ3W4T6","Sun Oct 04 2020 13:04:52 GMT-0400 (Eastern Daylight Time)","Sun Oct 04 2020 13:13:37 GMT-0400 (Eastern Daylight Time)","Mozilla/5.0 (Windows NT 10.0; WOW64) AppleWebKit/537.36 (KHTML, like Gecko) Chrome/85.0.4183.121 Safari/537.36",128,"[0.9, 0.5, 0.1]","[0.8, 0.4, 0.2]","[u'red', u'blue', u'black']","[u'left', u'middle', u'right']","[0.8, 0.4, 0.2]","[u'high', u'low', u'medium']","red",49,"left","high","True","False",538,6500,NA
"A5T9IFDZ3W4T6","Sun Oct 04 2020 13:04:52 GMT-0400 (Eastern Daylight Time)","Sun Oct 04 2020 13:13:37 GMT-0400 (Eastern Daylight Time)","Mozilla/5.0 (Windows NT 10.0; WOW64) AppleWebKit/537.36 (KHTML, like Gecko) Chrome/85.0.4183.121 Safari/537.36",129,"[0.9, 0.5, 0.1]","[0.8, 0.4, 0.2]","[u'red', u'blue', u'black']","[u'left', u'middle', u'right']","[0.8, 0.4, 0.2]","[u'high', u'low', u'medium']","red",49,"left","high","True","False",440,6600,NA
"A5T9IFDZ3W4T6","Sun Oct 04 2020 13:04:52 GMT-0400 (Eastern Daylight Time)","Sun Oct 04 2020 13:13:37 GMT-0400 (Eastern Daylight Time)","Mozilla/5.0 (Windows NT 10.0; WOW64) AppleWebKit/537.36 (KHTML, like Gecko) Chrome/85.0.4183.121 Safari/537.36",130,"[0.9, 0.5, 0.1]","[0.8, 0.4, 0.2]","[u'red', u'blue', u'black']","[u'left', u'middle', u'right']","[0.8, 0.4, 0.2]","[u'high', u'low', u'medium']","red",49,"left","high","False","False",280,6550,NA
"A5T9IFDZ3W4T6","Sun Oct 04 2020 13:04:52 GMT-0400 (Eastern Daylight Time)","Sun Oct 04 2020 13:13:37 GMT-0400 (Eastern Daylight Time)","Mozilla/5.0 (Windows NT 10.0; WOW64) AppleWebKit/537.36 (KHTML, like Gecko) Chrome/85.0.4183.121 Safari/537.36",131,"[0.9, 0.5, 0.1]","[0.8, 0.4, 0.2]","[u'red', u'blue', u'black']","[u'left', u'middle', u'right']","[0.8, 0.4, 0.2]","[u'high', u'low', u'medium']","black",51,"right","medium","True","False",256,6650,NA
"A5T9IFDZ3W4T6","Sun Oct 04 2020 13:04:52 GMT-0400 (Eastern Daylight Time)","Sun Oct 04 2020 13:13:37 GMT-0400 (Eastern Daylight Time)","Mozilla/5.0 (Windows NT 10.0; WOW64) AppleWebKit/537.36 (KHTML, like Gecko) Chrome/85.0.4183.121 Safari/537.36",132,"[0.9, 0.5, 0.1]","[0.8, 0.4, 0.2]","[u'red', u'blue', u'black']","[u'left', u'middle', u'right']","[0.8, 0.4, 0.2]","[u'high', u'low', u'medium']","black",51,"right","medium","True","False",161,6750,NA
"A5T9IFDZ3W4T6","Sun Oct 04 2020 13:04:52 GMT-0400 (Eastern Daylight Time)","Sun Oct 04 2020 13:13:37 GMT-0400 (Eastern Daylight Time)","Mozilla/5.0 (Windows NT 10.0; WOW64) AppleWebKit/537.36 (KHTML, like Gecko) Chrome/85.0.4183.121 Safari/537.36",133,"[0.9, 0.5, 0.1]","[0.8, 0.4, 0.2]","[u'red', u'blue', u'black']","[u'left', u'middle', u'right']","[0.8, 0.4, 0.2]","[u'high', u'low', u'medium']","black",51,"right","medium","False","False",336,6700,NA
"A5T9IFDZ3W4T6","Sun Oct 04 2020 13:04:52 GMT-0400 (Eastern Daylight Time)","Sun Oct 04 2020 13:13:37 GMT-0400 (Eastern Daylight Time)","Mozilla/5.0 (Windows NT 10.0; WOW64) AppleWebKit/537.36 (KHTML, like Gecko) Chrome/85.0.4183.121 Safari/537.36",134,"[0.9, 0.5, 0.1]","[0.8, 0.4, 0.2]","[u'red', u'blue', u'black']","[u'left', u'middle', u'right']","[0.8, 0.4, 0.2]","[u'high', u'low', u'medium']","red",49,"left","high","False","False",195,6650,NA
"A5T9IFDZ3W4T6","Sun Oct 04 2020 13:04:52 GMT-0400 (Eastern Daylight Time)","Sun Oct 04 2020 13:13:37 GMT-0400 (Eastern Daylight Time)","Mozilla/5.0 (Windows NT 10.0; WOW64) AppleWebKit/537.36 (KHTML, like Gecko) Chrome/85.0.4183.121 Safari/537.36",135,"[0.9, 0.5, 0.1]","[0.8, 0.4, 0.2]","[u'red', u'blue', u'black']","[u'left', u'middle', u'right']","[0.8, 0.4, 0.2]","[u'high', u'low', u'medium']","blue",50,"middle","low","False","False",119,6600,NA
"A5T9IFDZ3W4T6","Sun Oct 04 2020 13:04:52 GMT-0400 (Eastern Daylight Time)","Sun Oct 04 2020 13:13:37 GMT-0400 (Eastern Daylight Time)","Mozilla/5.0 (Windows NT 10.0; WOW64) AppleWebKit/537.36 (KHTML, like Gecko) Chrome/85.0.4183.121 Safari/537.36",136,"[0.9, 0.5, 0.1]","[0.8, 0.4, 0.2]","[u'red', u'blue', u'black']","[u'left', u'middle', u'right']","[0.8, 0.4, 0.2]","[u'high', u'low', u'medium']","red",49,"left","high","True","False",219,6700,NA
"A5T9IFDZ3W4T6","Sun Oct 04 2020 13:04:52 GMT-0400 (Eastern Daylight Time)","Sun Oct 04 2020 13:13:37 GMT-0400 (Eastern Daylight Time)","Mozilla/5.0 (Windows NT 10.0; WOW64) AppleWebKit/537.36 (KHTML, like Gecko) Chrome/85.0.4183.121 Safari/537.36",137,"[0.9, 0.5, 0.1]","[0.8, 0.4, 0.2]","[u'red', u'blue', u'black']","[u'left', u'middle', u'right']","[0.8, 0.4, 0.2]","[u'high', u'low', u'medium']","red",49,"left","high","True","False",256,6800,NA
"A5T9IFDZ3W4T6","Sun Oct 04 2020 13:04:52 GMT-0400 (Eastern Daylight Time)","Sun Oct 04 2020 13:13:37 GMT-0400 (Eastern Daylight Time)","Mozilla/5.0 (Windows NT 10.0; WOW64) AppleWebKit/537.36 (KHTML, like Gecko) Chrome/85.0.4183.121 Safari/537.36",138,"[0.9, 0.5, 0.1]","[0.8, 0.4, 0.2]","[u'red', u'blue', u'black']","[u'left', u'middle', u'right']","[0.8, 0.4, 0.2]","[u'high', u'low', u'medium']","red",49,"left","high","True","False",151,6900,NA
"A5T9IFDZ3W4T6","Sun Oct 04 2020 13:04:52 GMT-0400 (Eastern Daylight Time)","Sun Oct 04 2020 13:13:37 GMT-0400 (Eastern Daylight Time)","Mozilla/5.0 (Windows NT 10.0; WOW64) AppleWebKit/537.36 (KHTML, like Gecko) Chrome/85.0.4183.121 Safari/537.36",139,"[0.9, 0.5, 0.1]","[0.8, 0.4, 0.2]","[u'red', u'blue', u'black']","[u'left', u'middle', u'right']","[0.8, 0.4, 0.2]","[u'high', u'low', u'medium']","red",49,"left","high","False","False",245,6850,NA
"A5T9IFDZ3W4T6","Sun Oct 04 2020 13:04:52 GMT-0400 (Eastern Daylight Time)","Sun Oct 04 2020 13:13:37 GMT-0400 (Eastern Daylight Time)","Mozilla/5.0 (Windows NT 10.0; WOW64) AppleWebKit/537.36 (KHTML, like Gecko) Chrome/85.0.4183.121 Safari/537.36",140,"[0.9, 0.5, 0.1]","[0.8, 0.4, 0.2]","[u'red', u'blue', u'black']","[u'left', u'middle', u'right']","[0.8, 0.4, 0.2]","[u'high', u'low', u'medium']","red",49,"left","high","True","False",143,6950,NA
"A5T9IFDZ3W4T6","Sun Oct 04 2020 13:04:52 GMT-0400 (Eastern Daylight Time)","Sun Oct 04 2020 13:13:37 GMT-0400 (Eastern Daylight Time)","Mozilla/5.0 (Windows NT 10.0; WOW64) AppleWebKit/537.36 (KHTML, like Gecko) Chrome/85.0.4183.121 Safari/537.36",141,"[0.9, 0.5, 0.1]","[0.8, 0.4, 0.2]","[u'red', u'blue', u'black']","[u'left', u'middle', u'right']","[0.8, 0.4, 0.2]","[u'high', u'low', u'medium']","red",49,"left","high","False","False",400,6900,NA
"A5T9IFDZ3W4T6","Sun Oct 04 2020 13:04:52 GMT-0400 (Eastern Daylight Time)","Sun Oct 04 2020 13:13:37 GMT-0400 (Eastern Daylight Time)","Mozilla/5.0 (Windows NT 10.0; WOW64) AppleWebKit/537.36 (KHTML, like Gecko) Chrome/85.0.4183.121 Safari/537.36",142,"[0.9, 0.5, 0.1]","[0.8, 0.4, 0.2]","[u'red', u'blue', u'black']","[u'left', u'middle', u'right']","[0.8, 0.4, 0.2]","[u'high', u'low', u'medium']","red",49,"left","high","True","False",225,7000,NA
"A5T9IFDZ3W4T6","Sun Oct 04 2020 13:04:52 GMT-0400 (Eastern Daylight Time)","Sun Oct 04 2020 13:13:37 GMT-0400 (Eastern Daylight Time)","Mozilla/5.0 (Windows NT 10.0; WOW64) AppleWebKit/537.36 (KHTML, like Gecko) Chrome/85.0.4183.121 Safari/537.36",143,"[0.9, 0.5, 0.1]","[0.8, 0.4, 0.2]","[u'red', u'blue', u'black']","[u'left', u'middle', u'right']","[0.8, 0.4, 0.2]","[u'high', u'low', u'medium']","red",49,"left","high","True","True",119,7100,NA
"A5T9IFDZ3W4T6","Sun Oct 04 2020 13:04:52 GMT-0400 (Eastern Daylight Time)","Sun Oct 04 2020 13:13:37 GMT-0400 (Eastern Daylight Time)","Mozilla/5.0 (Windows NT 10.0; WOW64) AppleWebKit/537.36 (KHTML, like Gecko) Chrome/85.0.4183.121 Safari/537.36",144,"[0.9, 0.5, 0.1]","[0.8, 0.4, 0.2]","[u'red', u'blue', u'black']","[u'left', u'middle', u'right']","[0.8, 0.4, 0.2]","[u'medium', u'low', u'high']","red",49,"left","medium","True","False",17,7200,NA
"A5T9IFDZ3W4T6","Sun Oct 04 2020 13:04:52 GMT-0400 (Eastern Daylight Time)","Sun Oct 04 2020 13:13:37 GMT-0400 (Eastern Daylight Time)","Mozilla/5.0 (Windows NT 10.0; WOW64) AppleWebKit/537.36 (KHTML, like Gecko) Chrome/85.0.4183.121 Safari/537.36",145,"[0.9, 0.5, 0.1]","[0.8, 0.4, 0.2]","[u'red', u'blue', u'black']","[u'left', u'middle', u'right']","[0.8, 0.4, 0.2]","[u'medium', u'low', u'high']","red",49,"left","medium","True","False",235,7300,NA
"A5T9IFDZ3W4T6","Sun Oct 04 2020 13:04:52 GMT-0400 (Eastern Daylight Time)","Sun Oct 04 2020 13:13:37 GMT-0400 (Eastern Daylight Time)","Mozilla/5.0 (Windows NT 10.0; WOW64) AppleWebKit/537.36 (KHTML, like Gecko) Chrome/85.0.4183.121 Safari/537.36",146,"[0.9, 0.5, 0.1]","[0.8, 0.4, 0.2]","[u'red', u'blue', u'black']","[u'left', u'middle', u'right']","[0.8, 0.4, 0.2]","[u'medium', u'low', u'high']","red",49,"left","medium","False","False",238,7250,NA
"A5T9IFDZ3W4T6","Sun Oct 04 2020 13:04:52 GMT-0400 (Eastern Daylight Time)","Sun Oct 04 2020 13:13:37 GMT-0400 (Eastern Daylight Time)","Mozilla/5.0 (Windows NT 10.0; WOW64) AppleWebKit/537.36 (KHTML, like Gecko) Chrome/85.0.4183.121 Safari/537.36",147,"[0.9, 0.5, 0.1]","[0.8, 0.4, 0.2]","[u'red', u'blue', u'black']","[u'left', u'middle', u'right']","[0.8, 0.4, 0.2]","[u'medium', u'low', u'high']","blue",50,"middle","low","False","False",368,7200,NA
"A5T9IFDZ3W4T6","Sun Oct 04 2020 13:04:52 GMT-0400 (Eastern Daylight Time)","Sun Oct 04 2020 13:13:37 GMT-0400 (Eastern Daylight Time)","Mozilla/5.0 (Windows NT 10.0; WOW64) AppleWebKit/537.36 (KHTML, like Gecko) Chrome/85.0.4183.121 Safari/537.36",148,"[0.9, 0.5, 0.1]","[0.8, 0.4, 0.2]","[u'red', u'blue', u'black']","[u'left', u'middle', u'right']","[0.8, 0.4, 0.2]","[u'medium', u'low', u'high']","black",51,"right","high","True","False",162,7300,NA
"A5T9IFDZ3W4T6","Sun Oct 04 2020 13:04:52 GMT-0400 (Eastern Daylight Time)","Sun Oct 04 2020 13:13:37 GMT-0400 (Eastern Daylight Time)","Mozilla/5.0 (Windows NT 10.0; WOW64) AppleWebKit/537.36 (KHTML, like Gecko) Chrome/85.0.4183.121 Safari/537.36",149,"[0.9, 0.5, 0.1]","[0.8, 0.4, 0.2]","[u'red', u'blue', u'black']","[u'left', u'middle', u'right']","[0.8, 0.4, 0.2]","[u'medium', u'low', u'high']","black",51,"right","high","True","False",103,7400,NA
"A5T9IFDZ3W4T6","Sun Oct 04 2020 13:04:52 GMT-0400 (Eastern Daylight Time)","Sun Oct 04 2020 13:13:37 GMT-0400 (Eastern Daylight Time)","Mozilla/5.0 (Windows NT 10.0; WOW64) AppleWebKit/537.36 (KHTML, like Gecko) Chrome/85.0.4183.121 Safari/537.36",150,"[0.9, 0.5, 0.1]","[0.8, 0.4, 0.2]","[u'red', u'blue', u'black']","[u'left', u'middle', u'right']","[0.8, 0.4, 0.2]","[u'medium', u'low', u'high']","black",51,"right","high","False","False",185,7350,NA
"A5T9IFDZ3W4T6","Sun Oct 04 2020 13:04:52 GMT-0400 (Eastern Daylight Time)","Sun Oct 04 2020 13:13:37 GMT-0400 (Eastern Daylight Time)","Mozilla/5.0 (Windows NT 10.0; WOW64) AppleWebKit/537.36 (KHTML, like Gecko) Chrome/85.0.4183.121 Safari/537.36",151,"[0.9, 0.5, 0.1]","[0.8, 0.4, 0.2]","[u'red', u'blue', u'black']","[u'left', u'middle', u'right']","[0.8, 0.4, 0.2]","[u'medium', u'low', u'high']","black",51,"right","high","True","False",214,7450,NA
"A5T9IFDZ3W4T6","Sun Oct 04 2020 13:04:52 GMT-0400 (Eastern Daylight Time)","Sun Oct 04 2020 13:13:37 GMT-0400 (Eastern Daylight Time)","Mozilla/5.0 (Windows NT 10.0; WOW64) AppleWebKit/537.36 (KHTML, like Gecko) Chrome/85.0.4183.121 Safari/537.36",152,"[0.9, 0.5, 0.1]","[0.8, 0.4, 0.2]","[u'red', u'blue', u'black']","[u'left', u'middle', u'right']","[0.8, 0.4, 0.2]","[u'medium', u'low', u'high']","black",51,"right","high","True","False",217,7550,NA
"A5T9IFDZ3W4T6","Sun Oct 04 2020 13:04:52 GMT-0400 (Eastern Daylight Time)","Sun Oct 04 2020 13:13:37 GMT-0400 (Eastern Daylight Time)","Mozilla/5.0 (Windows NT 10.0; WOW64) AppleWebKit/537.36 (KHTML, like Gecko) Chrome/85.0.4183.121 Safari/537.36",153,"[0.9, 0.5, 0.1]","[0.8, 0.4, 0.2]","[u'red', u'blue', u'black']","[u'left', u'middle', u'right']","[0.8, 0.4, 0.2]","[u'medium', u'low', u'high']","black",51,"right","high","True","False",257,7650,NA
"A5T9IFDZ3W4T6","Sun Oct 04 2020 13:04:52 GMT-0400 (Eastern Daylight Time)","Sun Oct 04 2020 13:13:37 GMT-0400 (Eastern Daylight Time)","Mozilla/5.0 (Windows NT 10.0; WOW64) AppleWebKit/537.36 (KHTML, like Gecko) Chrome/85.0.4183.121 Safari/537.36",154,"[0.9, 0.5, 0.1]","[0.8, 0.4, 0.2]","[u'red', u'blue', u'black']","[u'left', u'middle', u'right']","[0.8, 0.4, 0.2]","[u'medium', u'low', u'high']","black",51,"right","high","True","False",332,7750,NA
"A5T9IFDZ3W4T6","Sun Oct 04 2020 13:04:52 GMT-0400 (Eastern Daylight Time)","Sun Oct 04 2020 13:13:37 GMT-0400 (Eastern Daylight Time)","Mozilla/5.0 (Windows NT 10.0; WOW64) AppleWebKit/537.36 (KHTML, like Gecko) Chrome/85.0.4183.121 Safari/537.36",155,"[0.9, 0.5, 0.1]","[0.8, 0.4, 0.2]","[u'red', u'blue', u'black']","[u'left', u'middle', u'right']","[0.8, 0.4, 0.2]","[u'medium', u'low', u'high']","black",51,"right","high","True","False",53,7850,NA
"A5T9IFDZ3W4T6","Sun Oct 04 2020 13:04:52 GMT-0400 (Eastern Daylight Time)","Sun Oct 04 2020 13:13:37 GMT-0400 (Eastern Daylight Time)","Mozilla/5.0 (Windows NT 10.0; WOW64) AppleWebKit/537.36 (KHTML, like Gecko) Chrome/85.0.4183.121 Safari/537.36",156,"[0.9, 0.5, 0.1]","[0.8, 0.4, 0.2]","[u'red', u'blue', u'black']","[u'left', u'middle', u'right']","[0.8, 0.4, 0.2]","[u'medium', u'low', u'high']","black",51,"right","high","True","True",292,7950,NA
"A5T9IFDZ3W4T6","Sun Oct 04 2020 13:04:52 GMT-0400 (Eastern Daylight Time)","Sun Oct 04 2020 13:13:37 GMT-0400 (Eastern Daylight Time)","Mozilla/5.0 (Windows NT 10.0; WOW64) AppleWebKit/537.36 (KHTML, like Gecko) Chrome/85.0.4183.121 Safari/537.36",157,"[0.9, 0.5, 0.1]","[0.8, 0.4, 0.2]","[u'red', u'blue', u'black']","[u'left', u'middle', u'right']","[0.8, 0.4, 0.2]","[u'low', u'high', u'medium']","black",51,"right","medium","True","False",272,8050,NA
"A5T9IFDZ3W4T6","Sun Oct 04 2020 13:04:52 GMT-0400 (Eastern Daylight Time)","Sun Oct 04 2020 13:13:37 GMT-0400 (Eastern Daylight Time)","Mozilla/5.0 (Windows NT 10.0; WOW64) AppleWebKit/537.36 (KHTML, like Gecko) Chrome/85.0.4183.121 Safari/537.36",158,"[0.9, 0.5, 0.1]","[0.8, 0.4, 0.2]","[u'red', u'blue', u'black']","[u'left', u'middle', u'right']","[0.8, 0.4, 0.2]","[u'low', u'high', u'medium']","black",51,"right","medium","False","False",225,8000,NA
"A5T9IFDZ3W4T6","Sun Oct 04 2020 13:04:52 GMT-0400 (Eastern Daylight Time)","Sun Oct 04 2020 13:13:37 GMT-0400 (Eastern Daylight Time)","Mozilla/5.0 (Windows NT 10.0; WOW64) AppleWebKit/537.36 (KHTML, like Gecko) Chrome/85.0.4183.121 Safari/537.36",159,"[0.9, 0.5, 0.1]","[0.8, 0.4, 0.2]","[u'red', u'blue', u'black']","[u'left', u'middle', u'right']","[0.8, 0.4, 0.2]","[u'low', u'high', u'medium']","red",49,"left","low","True","False",285,8100,NA
"A5T9IFDZ3W4T6","Sun Oct 04 2020 13:04:52 GMT-0400 (Eastern Daylight Time)","Sun Oct 04 2020 13:13:37 GMT-0400 (Eastern Daylight Time)","Mozilla/5.0 (Windows NT 10.0; WOW64) AppleWebKit/537.36 (KHTML, like Gecko) Chrome/85.0.4183.121 Safari/537.36",160,"[0.9, 0.5, 0.1]","[0.8, 0.4, 0.2]","[u'red', u'blue', u'black']","[u'left', u'middle', u'right']","[0.8, 0.4, 0.2]","[u'low', u'high', u'medium']","red",49,"left","low","False","False",262,8050,NA
