"src_subject_id","start_time","end_time","browser","index","first_half_probabilities","second_half_probabilities","deck_color","deck_position","deck_probabilities","deck_contingencies","response_color","key_press","response_position","response_probability","reward_type","trial_type","rt","reward_tally","exclusion_reason"
"A1HMO9XPRPUPWJ","Sun Oct 04 2020 14:25:23 GMT-0400 (Eastern Daylight Time)","Sun Oct 04 2020 14:32:39 GMT-0400 (Eastern Daylight Time)","Mozilla/5.0 (Windows NT 6.1; Win64; x64) AppleWebKit/537.36 (KHTML, like Gecko) Chrome/85.0.4183.121 Safari/537.36",1,"[0.9, 0.5, 0.1]","[0.8, 0.4, 0.2]","[u'red', u'blue', u'black']","[u'left', u'middle', u'right']","[0.9, 0.5, 0.1]","[u'low', u'medium', u'high']","red",49,"left","low","False","False",6376,-50,NA
"A1HMO9XPRPUPWJ","Sun Oct 04 2020 14:25:23 GMT-0400 (Eastern Daylight Time)","Sun Oct 04 2020 14:32:39 GMT-0400 (Eastern Daylight Time)","Mozilla/5.0 (Windows NT 6.1; Win64; x64) AppleWebKit/537.36 (KHTML, like Gecko) Chrome/85.0.4183.121 Safari/537.36",2,"[0.9, 0.5, 0.1]","[0.8, 0.4, 0.2]","[u'red', u'blue', u'black']","[u'left', u'middle', u'right']","[0.9, 0.5, 0.1]","[u'low', u'medium', u'high']","blue",50,"middle","medium","True","False",3739,50,NA
"A1HMO9XPRPUPWJ","Sun Oct 04 2020 14:25:23 GMT-0400 (Eastern Daylight Time)","Sun Oct 04 2020 14:32:39 GMT-0400 (Eastern Daylight Time)","Mozilla/5.0 (Windows NT 6.1; Win64; x64) AppleWebKit/537.36 (KHTML, like Gecko) Chrome/85.0.4183.121 Safari/537.36",3,"[0.9, 0.5, 0.1]","[0.8, 0.4, 0.2]","[u'red', u'blue', u'black']","[u'left', u'middle', u'right']","[0.9, 0.5, 0.1]","[u'low', u'medium', u'high']","black",51,"right","high","True","False",3287,150,NA
"A1HMO9XPRPUPWJ","Sun Oct 04 2020 14:25:23 GMT-0400 (Eastern Daylight Time)","Sun Oct 04 2020 14:32:39 GMT-0400 (Eastern Daylight Time)","Mozilla/5.0 (Windows NT 6.1; Win64; x64) AppleWebKit/537.36 (KHTML, like Gecko) Chrome/85.0.4183.121 Safari/537.36",4,"[0.9, 0.5, 0.1]","[0.8, 0.4, 0.2]","[u'red', u'blue', u'black']","[u'left', u'middle', u'right']","[0.9, 0.5, 0.1]","[u'low', u'medium', u'high']","blue",50,"middle","medium","True","False",2820,250,NA
"A1HMO9XPRPUPWJ","Sun Oct 04 2020 14:25:23 GMT-0400 (Eastern Daylight Time)","Sun Oct 04 2020 14:32:39 GMT-0400 (Eastern Daylight Time)","Mozilla/5.0 (Windows NT 6.1; Win64; x64) AppleWebKit/537.36 (KHTML, like Gecko) Chrome/85.0.4183.121 Safari/537.36",5,"[0.9, 0.5, 0.1]","[0.8, 0.4, 0.2]","[u'red', u'blue', u'black']","[u'left', u'middle', u'right']","[0.9, 0.5, 0.1]","[u'low', u'medium', u'high']","blue",50,"middle","medium","True","False",3237,350,NA
"A1HMO9XPRPUPWJ","Sun Oct 04 2020 14:25:23 GMT-0400 (Eastern Daylight Time)","Sun Oct 04 2020 14:32:39 GMT-0400 (Eastern Daylight Time)","Mozilla/5.0 (Windows NT 6.1; Win64; x64) AppleWebKit/537.36 (KHTML, like Gecko) Chrome/85.0.4183.121 Safari/537.36",6,"[0.9, 0.5, 0.1]","[0.8, 0.4, 0.2]","[u'red', u'blue', u'black']","[u'left', u'middle', u'right']","[0.9, 0.5, 0.1]","[u'low', u'medium', u'high']","blue",50,"middle","medium","True","False",2848,450,NA
"A1HMO9XPRPUPWJ","Sun Oct 04 2020 14:25:23 GMT-0400 (Eastern Daylight Time)","Sun Oct 04 2020 14:32:39 GMT-0400 (Eastern Daylight Time)","Mozilla/5.0 (Windows NT 6.1; Win64; x64) AppleWebKit/537.36 (KHTML, like Gecko) Chrome/85.0.4183.121 Safari/537.36",7,"[0.9, 0.5, 0.1]","[0.8, 0.4, 0.2]","[u'red', u'blue', u'black']","[u'left', u'middle', u'right']","[0.9, 0.5, 0.1]","[u'low', u'medium', u'high']","blue",50,"middle","medium","False","False",2039,400,NA
"A1HMO9XPRPUPWJ","Sun Oct 04 2020 14:25:23 GMT-0400 (Eastern Daylight Time)","Sun Oct 04 2020 14:32:39 GMT-0400 (Eastern Daylight Time)","Mozilla/5.0 (Windows NT 6.1; Win64; x64) AppleWebKit/537.36 (KHTML, like Gecko) Chrome/85.0.4183.121 Safari/537.36",8,"[0.9, 0.5, 0.1]","[0.8, 0.4, 0.2]","[u'red', u'blue', u'black']","[u'left', u'middle', u'right']","[0.9, 0.5, 0.1]","[u'low', u'medium', u'high']","black",51,"right","high","True","False",2275,500,NA
"A1HMO9XPRPUPWJ","Sun Oct 04 2020 14:25:23 GMT-0400 (Eastern Daylight Time)","Sun Oct 04 2020 14:32:39 GMT-0400 (Eastern Daylight Time)","Mozilla/5.0 (Windows NT 6.1; Win64; x64) AppleWebKit/537.36 (KHTML, like Gecko) Chrome/85.0.4183.121 Safari/537.36",9,"[0.9, 0.5, 0.1]","[0.8, 0.4, 0.2]","[u'red', u'blue', u'black']","[u'left', u'middle', u'right']","[0.9, 0.5, 0.1]","[u'low', u'medium', u'high']","black",51,"right","high","True","False",731,600,NA
"A1HMO9XPRPUPWJ","Sun Oct 04 2020 14:25:23 GMT-0400 (Eastern Daylight Time)","Sun Oct 04 2020 14:32:39 GMT-0400 (Eastern Daylight Time)","Mozilla/5.0 (Windows NT 6.1; Win64; x64) AppleWebKit/537.36 (KHTML, like Gecko) Chrome/85.0.4183.121 Safari/537.36",10,"[0.9, 0.5, 0.1]","[0.8, 0.4, 0.2]","[u'red', u'blue', u'black']","[u'left', u'middle', u'right']","[0.9, 0.5, 0.1]","[u'low', u'medium', u'high']","black",51,"right","high","True","False",503,700,NA
"A1HMO9XPRPUPWJ","Sun Oct 04 2020 14:25:23 GMT-0400 (Eastern Daylight Time)","Sun Oct 04 2020 14:32:39 GMT-0400 (Eastern Daylight Time)","Mozilla/5.0 (Windows NT 6.1; Win64; x64) AppleWebKit/537.36 (KHTML, like Gecko) Chrome/85.0.4183.121 Safari/537.36",11,"[0.9, 0.5, 0.1]","[0.8, 0.4, 0.2]","[u'red', u'blue', u'black']","[u'left', u'middle', u'right']","[0.9, 0.5, 0.1]","[u'low', u'medium', u'high']","black",51,"right","high","False","False",485,650,NA
"A1HMO9XPRPUPWJ","Sun Oct 04 2020 14:25:23 GMT-0400 (Eastern Daylight Time)","Sun Oct 04 2020 14:32:39 GMT-0400 (Eastern Daylight Time)","Mozilla/5.0 (Windows NT 6.1; Win64; x64) AppleWebKit/537.36 (KHTML, like Gecko) Chrome/85.0.4183.121 Safari/537.36",12,"[0.9, 0.5, 0.1]","[0.8, 0.4, 0.2]","[u'red', u'blue', u'black']","[u'left', u'middle', u'right']","[0.9, 0.5, 0.1]","[u'low', u'medium', u'high']","blue",50,"middle","medium","False","False",2173,600,NA
"A1HMO9XPRPUPWJ","Sun Oct 04 2020 14:25:23 GMT-0400 (Eastern Daylight Time)","Sun Oct 04 2020 14:32:39 GMT-0400 (Eastern Daylight Time)","Mozilla/5.0 (Windows NT 6.1; Win64; x64) AppleWebKit/537.36 (KHTML, like Gecko) Chrome/85.0.4183.121 Safari/537.36",13,"[0.9, 0.5, 0.1]","[0.8, 0.4, 0.2]","[u'red', u'blue', u'black']","[u'left', u'middle', u'right']","[0.9, 0.5, 0.1]","[u'low', u'medium', u'high']","black",51,"right","high","True","False",400,700,NA
"A1HMO9XPRPUPWJ","Sun Oct 04 2020 14:25:23 GMT-0400 (Eastern Daylight Time)","Sun Oct 04 2020 14:32:39 GMT-0400 (Eastern Daylight Time)","Mozilla/5.0 (Windows NT 6.1; Win64; x64) AppleWebKit/537.36 (KHTML, like Gecko) Chrome/85.0.4183.121 Safari/537.36",14,"[0.9, 0.5, 0.1]","[0.8, 0.4, 0.2]","[u'red', u'blue', u'black']","[u'left', u'middle', u'right']","[0.9, 0.5, 0.1]","[u'low', u'medium', u'high']","black",51,"right","high","True","False",330,800,NA
"A1HMO9XPRPUPWJ","Sun Oct 04 2020 14:25:23 GMT-0400 (Eastern Daylight Time)","Sun Oct 04 2020 14:32:39 GMT-0400 (Eastern Daylight Time)","Mozilla/5.0 (Windows NT 6.1; Win64; x64) AppleWebKit/537.36 (KHTML, like Gecko) Chrome/85.0.4183.121 Safari/537.36",15,"[0.9, 0.5, 0.1]","[0.8, 0.4, 0.2]","[u'red', u'blue', u'black']","[u'left', u'middle', u'right']","[0.9, 0.5, 0.1]","[u'low', u'medium', u'high']","black",51,"right","high","True","False",1229,900,NA
"A1HMO9XPRPUPWJ","Sun Oct 04 2020 14:25:23 GMT-0400 (Eastern Daylight Time)","Sun Oct 04 2020 14:32:39 GMT-0400 (Eastern Daylight Time)","Mozilla/5.0 (Windows NT 6.1; Win64; x64) AppleWebKit/537.36 (KHTML, like Gecko) Chrome/85.0.4183.121 Safari/537.36",16,"[0.9, 0.5, 0.1]","[0.8, 0.4, 0.2]","[u'red', u'blue', u'black']","[u'left', u'middle', u'right']","[0.9, 0.5, 0.1]","[u'low', u'medium', u'high']","black",51,"right","high","True","False",471,1000,NA
"A1HMO9XPRPUPWJ","Sun Oct 04 2020 14:25:23 GMT-0400 (Eastern Daylight Time)","Sun Oct 04 2020 14:32:39 GMT-0400 (Eastern Daylight Time)","Mozilla/5.0 (Windows NT 6.1; Win64; x64) AppleWebKit/537.36 (KHTML, like Gecko) Chrome/85.0.4183.121 Safari/537.36",17,"[0.9, 0.5, 0.1]","[0.8, 0.4, 0.2]","[u'red', u'blue', u'black']","[u'left', u'middle', u'right']","[0.9, 0.5, 0.1]","[u'low', u'medium', u'high']","black",51,"right","high","True","True",299,1100,NA
"A1HMO9XPRPUPWJ","Sun Oct 04 2020 14:25:23 GMT-0400 (Eastern Daylight Time)","Sun Oct 04 2020 14:32:39 GMT-0400 (Eastern Daylight Time)","Mozilla/5.0 (Windows NT 6.1; Win64; x64) AppleWebKit/537.36 (KHTML, like Gecko) Chrome/85.0.4183.121 Safari/537.36",18,"[0.9, 0.5, 0.1]","[0.8, 0.4, 0.2]","[u'red', u'blue', u'black']","[u'left', u'middle', u'right']","[0.9, 0.5, 0.1]","[u'high', u'low', u'medium']","black",51,"right","medium","False","False",316,1050,NA
"A1HMO9XPRPUPWJ","Sun Oct 04 2020 14:25:23 GMT-0400 (Eastern Daylight Time)","Sun Oct 04 2020 14:32:39 GMT-0400 (Eastern Daylight Time)","Mozilla/5.0 (Windows NT 6.1; Win64; x64) AppleWebKit/537.36 (KHTML, like Gecko) Chrome/85.0.4183.121 Safari/537.36",19,"[0.9, 0.5, 0.1]","[0.8, 0.4, 0.2]","[u'red', u'blue', u'black']","[u'left', u'middle', u'right']","[0.9, 0.5, 0.1]","[u'high', u'low', u'medium']","black",51,"right","medium","True","False",273,1150,NA
"A1HMO9XPRPUPWJ","Sun Oct 04 2020 14:25:23 GMT-0400 (Eastern Daylight Time)","Sun Oct 04 2020 14:32:39 GMT-0400 (Eastern Daylight Time)","Mozilla/5.0 (Windows NT 6.1; Win64; x64) AppleWebKit/537.36 (KHTML, like Gecko) Chrome/85.0.4183.121 Safari/537.36",20,"[0.9, 0.5, 0.1]","[0.8, 0.4, 0.2]","[u'red', u'blue', u'black']","[u'left', u'middle', u'right']","[0.9, 0.5, 0.1]","[u'high', u'low', u'medium']","black",51,"right","medium","False","False",281,1100,NA
"A1HMO9XPRPUPWJ","Sun Oct 04 2020 14:25:23 GMT-0400 (Eastern Daylight Time)","Sun Oct 04 2020 14:32:39 GMT-0400 (Eastern Daylight Time)","Mozilla/5.0 (Windows NT 6.1; Win64; x64) AppleWebKit/537.36 (KHTML, like Gecko) Chrome/85.0.4183.121 Safari/537.36",21,"[0.9, 0.5, 0.1]","[0.8, 0.4, 0.2]","[u'red', u'blue', u'black']","[u'left', u'middle', u'right']","[0.9, 0.5, 0.1]","[u'high', u'low', u'medium']","black",51,"right","medium","False","False",988,1050,NA
"A1HMO9XPRPUPWJ","Sun Oct 04 2020 14:25:23 GMT-0400 (Eastern Daylight Time)","Sun Oct 04 2020 14:32:39 GMT-0400 (Eastern Daylight Time)","Mozilla/5.0 (Windows NT 6.1; Win64; x64) AppleWebKit/537.36 (KHTML, like Gecko) Chrome/85.0.4183.121 Safari/537.36",22,"[0.9, 0.5, 0.1]","[0.8, 0.4, 0.2]","[u'red', u'blue', u'black']","[u'left', u'middle', u'right']","[0.9, 0.5, 0.1]","[u'high', u'low', u'medium']","blue",50,"middle","low","False","False",281,1000,NA
"A1HMO9XPRPUPWJ","Sun Oct 04 2020 14:25:23 GMT-0400 (Eastern Daylight Time)","Sun Oct 04 2020 14:32:39 GMT-0400 (Eastern Daylight Time)","Mozilla/5.0 (Windows NT 6.1; Win64; x64) AppleWebKit/537.36 (KHTML, like Gecko) Chrome/85.0.4183.121 Safari/537.36",23,"[0.9, 0.5, 0.1]","[0.8, 0.4, 0.2]","[u'red', u'blue', u'black']","[u'left', u'middle', u'right']","[0.9, 0.5, 0.1]","[u'high', u'low', u'medium']","red",49,"left","high","True","False",268,1100,NA
"A1HMO9XPRPUPWJ","Sun Oct 04 2020 14:25:23 GMT-0400 (Eastern Daylight Time)","Sun Oct 04 2020 14:32:39 GMT-0400 (Eastern Daylight Time)","Mozilla/5.0 (Windows NT 6.1; Win64; x64) AppleWebKit/537.36 (KHTML, like Gecko) Chrome/85.0.4183.121 Safari/537.36",24,"[0.9, 0.5, 0.1]","[0.8, 0.4, 0.2]","[u'red', u'blue', u'black']","[u'left', u'middle', u'right']","[0.9, 0.5, 0.1]","[u'high', u'low', u'medium']","red",49,"left","high","True","False",272,1200,NA
"A1HMO9XPRPUPWJ","Sun Oct 04 2020 14:25:23 GMT-0400 (Eastern Daylight Time)","Sun Oct 04 2020 14:32:39 GMT-0400 (Eastern Daylight Time)","Mozilla/5.0 (Windows NT 6.1; Win64; x64) AppleWebKit/537.36 (KHTML, like Gecko) Chrome/85.0.4183.121 Safari/537.36",25,"[0.9, 0.5, 0.1]","[0.8, 0.4, 0.2]","[u'red', u'blue', u'black']","[u'left', u'middle', u'right']","[0.9, 0.5, 0.1]","[u'high', u'low', u'medium']","red",49,"left","high","True","False",287,1300,NA
"A1HMO9XPRPUPWJ","Sun Oct 04 2020 14:25:23 GMT-0400 (Eastern Daylight Time)","Sun Oct 04 2020 14:32:39 GMT-0400 (Eastern Daylight Time)","Mozilla/5.0 (Windows NT 6.1; Win64; x64) AppleWebKit/537.36 (KHTML, like Gecko) Chrome/85.0.4183.121 Safari/537.36",26,"[0.9, 0.5, 0.1]","[0.8, 0.4, 0.2]","[u'red', u'blue', u'black']","[u'left', u'middle', u'right']","[0.9, 0.5, 0.1]","[u'high', u'low', u'medium']","red",49,"left","high","True","False",361,1400,NA
"A1HMO9XPRPUPWJ","Sun Oct 04 2020 14:25:23 GMT-0400 (Eastern Daylight Time)","Sun Oct 04 2020 14:32:39 GMT-0400 (Eastern Daylight Time)","Mozilla/5.0 (Windows NT 6.1; Win64; x64) AppleWebKit/537.36 (KHTML, like Gecko) Chrome/85.0.4183.121 Safari/537.36",27,"[0.9, 0.5, 0.1]","[0.8, 0.4, 0.2]","[u'red', u'blue', u'black']","[u'left', u'middle', u'right']","[0.9, 0.5, 0.1]","[u'high', u'low', u'medium']","red",49,"left","high","True","False",309,1500,NA
"A1HMO9XPRPUPWJ","Sun Oct 04 2020 14:25:23 GMT-0400 (Eastern Daylight Time)","Sun Oct 04 2020 14:32:39 GMT-0400 (Eastern Daylight Time)","Mozilla/5.0 (Windows NT 6.1; Win64; x64) AppleWebKit/537.36 (KHTML, like Gecko) Chrome/85.0.4183.121 Safari/537.36",28,"[0.9, 0.5, 0.1]","[0.8, 0.4, 0.2]","[u'red', u'blue', u'black']","[u'left', u'middle', u'right']","[0.9, 0.5, 0.1]","[u'high', u'low', u'medium']","red",49,"left","high","True","False",232,1600,NA
"A1HMO9XPRPUPWJ","Sun Oct 04 2020 14:25:23 GMT-0400 (Eastern Daylight Time)","Sun Oct 04 2020 14:32:39 GMT-0400 (Eastern Daylight Time)","Mozilla/5.0 (Windows NT 6.1; Win64; x64) AppleWebKit/537.36 (KHTML, like Gecko) Chrome/85.0.4183.121 Safari/537.36",29,"[0.9, 0.5, 0.1]","[0.8, 0.4, 0.2]","[u'red', u'blue', u'black']","[u'left', u'middle', u'right']","[0.9, 0.5, 0.1]","[u'high', u'low', u'medium']","red",49,"left","high","True","False",266,1700,NA
"A1HMO9XPRPUPWJ","Sun Oct 04 2020 14:25:23 GMT-0400 (Eastern Daylight Time)","Sun Oct 04 2020 14:32:39 GMT-0400 (Eastern Daylight Time)","Mozilla/5.0 (Windows NT 6.1; Win64; x64) AppleWebKit/537.36 (KHTML, like Gecko) Chrome/85.0.4183.121 Safari/537.36",30,"[0.9, 0.5, 0.1]","[0.8, 0.4, 0.2]","[u'red', u'blue', u'black']","[u'left', u'middle', u'right']","[0.9, 0.5, 0.1]","[u'high', u'low', u'medium']","red",49,"left","high","True","False",260,1800,NA
"A1HMO9XPRPUPWJ","Sun Oct 04 2020 14:25:23 GMT-0400 (Eastern Daylight Time)","Sun Oct 04 2020 14:32:39 GMT-0400 (Eastern Daylight Time)","Mozilla/5.0 (Windows NT 6.1; Win64; x64) AppleWebKit/537.36 (KHTML, like Gecko) Chrome/85.0.4183.121 Safari/537.36",31,"[0.9, 0.5, 0.1]","[0.8, 0.4, 0.2]","[u'red', u'blue', u'black']","[u'left', u'middle', u'right']","[0.9, 0.5, 0.1]","[u'high', u'low', u'medium']","red",49,"left","high","True","True",249,1900,NA
"A1HMO9XPRPUPWJ","Sun Oct 04 2020 14:25:23 GMT-0400 (Eastern Daylight Time)","Sun Oct 04 2020 14:32:39 GMT-0400 (Eastern Daylight Time)","Mozilla/5.0 (Windows NT 6.1; Win64; x64) AppleWebKit/537.36 (KHTML, like Gecko) Chrome/85.0.4183.121 Safari/537.36",32,"[0.9, 0.5, 0.1]","[0.8, 0.4, 0.2]","[u'red', u'blue', u'black']","[u'left', u'middle', u'right']","[0.9, 0.5, 0.1]","[u'low', u'medium', u'high']","red",49,"left","low","False","False",207,1850,NA
"A1HMO9XPRPUPWJ","Sun Oct 04 2020 14:25:23 GMT-0400 (Eastern Daylight Time)","Sun Oct 04 2020 14:32:39 GMT-0400 (Eastern Daylight Time)","Mozilla/5.0 (Windows NT 6.1; Win64; x64) AppleWebKit/537.36 (KHTML, like Gecko) Chrome/85.0.4183.121 Safari/537.36",33,"[0.9, 0.5, 0.1]","[0.8, 0.4, 0.2]","[u'red', u'blue', u'black']","[u'left', u'middle', u'right']","[0.9, 0.5, 0.1]","[u'low', u'medium', u'high']","red",49,"left","low","False","False",234,1800,NA
"A1HMO9XPRPUPWJ","Sun Oct 04 2020 14:25:23 GMT-0400 (Eastern Daylight Time)","Sun Oct 04 2020 14:32:39 GMT-0400 (Eastern Daylight Time)","Mozilla/5.0 (Windows NT 6.1; Win64; x64) AppleWebKit/537.36 (KHTML, like Gecko) Chrome/85.0.4183.121 Safari/537.36",34,"[0.9, 0.5, 0.1]","[0.8, 0.4, 0.2]","[u'red', u'blue', u'black']","[u'left', u'middle', u'right']","[0.9, 0.5, 0.1]","[u'low', u'medium', u'high']","blue",50,"middle","medium","True","False",245,1900,NA
"A1HMO9XPRPUPWJ","Sun Oct 04 2020 14:25:23 GMT-0400 (Eastern Daylight Time)","Sun Oct 04 2020 14:32:39 GMT-0400 (Eastern Daylight Time)","Mozilla/5.0 (Windows NT 6.1; Win64; x64) AppleWebKit/537.36 (KHTML, like Gecko) Chrome/85.0.4183.121 Safari/537.36",35,"[0.9, 0.5, 0.1]","[0.8, 0.4, 0.2]","[u'red', u'blue', u'black']","[u'left', u'middle', u'right']","[0.9, 0.5, 0.1]","[u'low', u'medium', u'high']","blue",50,"middle","medium","True","False",217,2000,NA
"A1HMO9XPRPUPWJ","Sun Oct 04 2020 14:25:23 GMT-0400 (Eastern Daylight Time)","Sun Oct 04 2020 14:32:39 GMT-0400 (Eastern Daylight Time)","Mozilla/5.0 (Windows NT 6.1; Win64; x64) AppleWebKit/537.36 (KHTML, like Gecko) Chrome/85.0.4183.121 Safari/537.36",36,"[0.9, 0.5, 0.1]","[0.8, 0.4, 0.2]","[u'red', u'blue', u'black']","[u'left', u'middle', u'right']","[0.9, 0.5, 0.1]","[u'low', u'medium', u'high']","blue",50,"middle","medium","False","False",243,1950,NA
"A1HMO9XPRPUPWJ","Sun Oct 04 2020 14:25:23 GMT-0400 (Eastern Daylight Time)","Sun Oct 04 2020 14:32:39 GMT-0400 (Eastern Daylight Time)","Mozilla/5.0 (Windows NT 6.1; Win64; x64) AppleWebKit/537.36 (KHTML, like Gecko) Chrome/85.0.4183.121 Safari/537.36",37,"[0.9, 0.5, 0.1]","[0.8, 0.4, 0.2]","[u'red', u'blue', u'black']","[u'left', u'middle', u'right']","[0.9, 0.5, 0.1]","[u'low', u'medium', u'high']","blue",50,"middle","medium","False","False",210,1900,NA
"A1HMO9XPRPUPWJ","Sun Oct 04 2020 14:25:23 GMT-0400 (Eastern Daylight Time)","Sun Oct 04 2020 14:32:39 GMT-0400 (Eastern Daylight Time)","Mozilla/5.0 (Windows NT 6.1; Win64; x64) AppleWebKit/537.36 (KHTML, like Gecko) Chrome/85.0.4183.121 Safari/537.36",38,"[0.9, 0.5, 0.1]","[0.8, 0.4, 0.2]","[u'red', u'blue', u'black']","[u'left', u'middle', u'right']","[0.9, 0.5, 0.1]","[u'low', u'medium', u'high']","black",51,"right","high","False","False",219,1850,NA
"A1HMO9XPRPUPWJ","Sun Oct 04 2020 14:25:23 GMT-0400 (Eastern Daylight Time)","Sun Oct 04 2020 14:32:39 GMT-0400 (Eastern Daylight Time)","Mozilla/5.0 (Windows NT 6.1; Win64; x64) AppleWebKit/537.36 (KHTML, like Gecko) Chrome/85.0.4183.121 Safari/537.36",39,"[0.9, 0.5, 0.1]","[0.8, 0.4, 0.2]","[u'red', u'blue', u'black']","[u'left', u'middle', u'right']","[0.9, 0.5, 0.1]","[u'low', u'medium', u'high']","black",51,"right","high","False","False",242,1800,NA
"A1HMO9XPRPUPWJ","Sun Oct 04 2020 14:25:23 GMT-0400 (Eastern Daylight Time)","Sun Oct 04 2020 14:32:39 GMT-0400 (Eastern Daylight Time)","Mozilla/5.0 (Windows NT 6.1; Win64; x64) AppleWebKit/537.36 (KHTML, like Gecko) Chrome/85.0.4183.121 Safari/537.36",40,"[0.9, 0.5, 0.1]","[0.8, 0.4, 0.2]","[u'red', u'blue', u'black']","[u'left', u'middle', u'right']","[0.9, 0.5, 0.1]","[u'low', u'medium', u'high']","red",49,"left","low","False","False",225,1750,NA
"A1HMO9XPRPUPWJ","Sun Oct 04 2020 14:25:23 GMT-0400 (Eastern Daylight Time)","Sun Oct 04 2020 14:32:39 GMT-0400 (Eastern Daylight Time)","Mozilla/5.0 (Windows NT 6.1; Win64; x64) AppleWebKit/537.36 (KHTML, like Gecko) Chrome/85.0.4183.121 Safari/537.36",41,"[0.9, 0.5, 0.1]","[0.8, 0.4, 0.2]","[u'red', u'blue', u'black']","[u'left', u'middle', u'right']","[0.9, 0.5, 0.1]","[u'high', u'low', u'medium']","red",49,"left","high","True","False",976,1850,NA
"A1HMO9XPRPUPWJ","Sun Oct 04 2020 14:25:23 GMT-0400 (Eastern Daylight Time)","Sun Oct 04 2020 14:32:39 GMT-0400 (Eastern Daylight Time)","Mozilla/5.0 (Windows NT 6.1; Win64; x64) AppleWebKit/537.36 (KHTML, like Gecko) Chrome/85.0.4183.121 Safari/537.36",42,"[0.9, 0.5, 0.1]","[0.8, 0.4, 0.2]","[u'red', u'blue', u'black']","[u'left', u'middle', u'right']","[0.9, 0.5, 0.1]","[u'high', u'low', u'medium']","red",49,"left","high","True","False",279,1950,NA
"A1HMO9XPRPUPWJ","Sun Oct 04 2020 14:25:23 GMT-0400 (Eastern Daylight Time)","Sun Oct 04 2020 14:32:39 GMT-0400 (Eastern Daylight Time)","Mozilla/5.0 (Windows NT 6.1; Win64; x64) AppleWebKit/537.36 (KHTML, like Gecko) Chrome/85.0.4183.121 Safari/537.36",43,"[0.9, 0.5, 0.1]","[0.8, 0.4, 0.2]","[u'red', u'blue', u'black']","[u'left', u'middle', u'right']","[0.9, 0.5, 0.1]","[u'high', u'low', u'medium']","red",49,"left","high","True","False",244,2050,NA
"A1HMO9XPRPUPWJ","Sun Oct 04 2020 14:25:23 GMT-0400 (Eastern Daylight Time)","Sun Oct 04 2020 14:32:39 GMT-0400 (Eastern Daylight Time)","Mozilla/5.0 (Windows NT 6.1; Win64; x64) AppleWebKit/537.36 (KHTML, like Gecko) Chrome/85.0.4183.121 Safari/537.36",44,"[0.9, 0.5, 0.1]","[0.8, 0.4, 0.2]","[u'red', u'blue', u'black']","[u'left', u'middle', u'right']","[0.9, 0.5, 0.1]","[u'high', u'low', u'medium']","red",49,"left","high","True","False",239,2150,NA
"A1HMO9XPRPUPWJ","Sun Oct 04 2020 14:25:23 GMT-0400 (Eastern Daylight Time)","Sun Oct 04 2020 14:32:39 GMT-0400 (Eastern Daylight Time)","Mozilla/5.0 (Windows NT 6.1; Win64; x64) AppleWebKit/537.36 (KHTML, like Gecko) Chrome/85.0.4183.121 Safari/537.36",45,"[0.9, 0.5, 0.1]","[0.8, 0.4, 0.2]","[u'red', u'blue', u'black']","[u'left', u'middle', u'right']","[0.9, 0.5, 0.1]","[u'high', u'low', u'medium']","red",49,"left","high","True","False",259,2250,NA
"A1HMO9XPRPUPWJ","Sun Oct 04 2020 14:25:23 GMT-0400 (Eastern Daylight Time)","Sun Oct 04 2020 14:32:39 GMT-0400 (Eastern Daylight Time)","Mozilla/5.0 (Windows NT 6.1; Win64; x64) AppleWebKit/537.36 (KHTML, like Gecko) Chrome/85.0.4183.121 Safari/537.36",46,"[0.9, 0.5, 0.1]","[0.8, 0.4, 0.2]","[u'red', u'blue', u'black']","[u'left', u'middle', u'right']","[0.9, 0.5, 0.1]","[u'high', u'low', u'medium']","red",49,"left","high","True","False",256,2350,NA
"A1HMO9XPRPUPWJ","Sun Oct 04 2020 14:25:23 GMT-0400 (Eastern Daylight Time)","Sun Oct 04 2020 14:32:39 GMT-0400 (Eastern Daylight Time)","Mozilla/5.0 (Windows NT 6.1; Win64; x64) AppleWebKit/537.36 (KHTML, like Gecko) Chrome/85.0.4183.121 Safari/537.36",47,"[0.9, 0.5, 0.1]","[0.8, 0.4, 0.2]","[u'red', u'blue', u'black']","[u'left', u'middle', u'right']","[0.9, 0.5, 0.1]","[u'high', u'low', u'medium']","red",49,"left","high","True","False",211,2450,NA
"A1HMO9XPRPUPWJ","Sun Oct 04 2020 14:25:23 GMT-0400 (Eastern Daylight Time)","Sun Oct 04 2020 14:32:39 GMT-0400 (Eastern Daylight Time)","Mozilla/5.0 (Windows NT 6.1; Win64; x64) AppleWebKit/537.36 (KHTML, like Gecko) Chrome/85.0.4183.121 Safari/537.36",48,"[0.9, 0.5, 0.1]","[0.8, 0.4, 0.2]","[u'red', u'blue', u'black']","[u'left', u'middle', u'right']","[0.9, 0.5, 0.1]","[u'high', u'low', u'medium']","red",49,"left","high","True","False",249,2550,NA
"A1HMO9XPRPUPWJ","Sun Oct 04 2020 14:25:23 GMT-0400 (Eastern Daylight Time)","Sun Oct 04 2020 14:32:39 GMT-0400 (Eastern Daylight Time)","Mozilla/5.0 (Windows NT 6.1; Win64; x64) AppleWebKit/537.36 (KHTML, like Gecko) Chrome/85.0.4183.121 Safari/537.36",49,"[0.9, 0.5, 0.1]","[0.8, 0.4, 0.2]","[u'red', u'blue', u'black']","[u'left', u'middle', u'right']","[0.9, 0.5, 0.1]","[u'high', u'low', u'medium']","red",49,"left","high","True","True",265,2650,NA
"A1HMO9XPRPUPWJ","Sun Oct 04 2020 14:25:23 GMT-0400 (Eastern Daylight Time)","Sun Oct 04 2020 14:32:39 GMT-0400 (Eastern Daylight Time)","Mozilla/5.0 (Windows NT 6.1; Win64; x64) AppleWebKit/537.36 (KHTML, like Gecko) Chrome/85.0.4183.121 Safari/537.36",50,"[0.9, 0.5, 0.1]","[0.8, 0.4, 0.2]","[u'red', u'blue', u'black']","[u'left', u'middle', u'right']","[0.9, 0.5, 0.1]","[u'medium', u'high', u'low']","red",49,"left","medium","False","False",232,2600,NA
"A1HMO9XPRPUPWJ","Sun Oct 04 2020 14:25:23 GMT-0400 (Eastern Daylight Time)","Sun Oct 04 2020 14:32:39 GMT-0400 (Eastern Daylight Time)","Mozilla/5.0 (Windows NT 6.1; Win64; x64) AppleWebKit/537.36 (KHTML, like Gecko) Chrome/85.0.4183.121 Safari/537.36",51,"[0.9, 0.5, 0.1]","[0.8, 0.4, 0.2]","[u'red', u'blue', u'black']","[u'left', u'middle', u'right']","[0.9, 0.5, 0.1]","[u'medium', u'high', u'low']","red",49,"left","medium","True","False",432,2700,NA
"A1HMO9XPRPUPWJ","Sun Oct 04 2020 14:25:23 GMT-0400 (Eastern Daylight Time)","Sun Oct 04 2020 14:32:39 GMT-0400 (Eastern Daylight Time)","Mozilla/5.0 (Windows NT 6.1; Win64; x64) AppleWebKit/537.36 (KHTML, like Gecko) Chrome/85.0.4183.121 Safari/537.36",52,"[0.9, 0.5, 0.1]","[0.8, 0.4, 0.2]","[u'red', u'blue', u'black']","[u'left', u'middle', u'right']","[0.9, 0.5, 0.1]","[u'medium', u'high', u'low']","red",49,"left","medium","False","False",163,2650,NA
"A1HMO9XPRPUPWJ","Sun Oct 04 2020 14:25:23 GMT-0400 (Eastern Daylight Time)","Sun Oct 04 2020 14:32:39 GMT-0400 (Eastern Daylight Time)","Mozilla/5.0 (Windows NT 6.1; Win64; x64) AppleWebKit/537.36 (KHTML, like Gecko) Chrome/85.0.4183.121 Safari/537.36",53,"[0.9, 0.5, 0.1]","[0.8, 0.4, 0.2]","[u'red', u'blue', u'black']","[u'left', u'middle', u'right']","[0.9, 0.5, 0.1]","[u'medium', u'high', u'low']","blue",50,"middle","high","True","False",267,2750,NA
"A1HMO9XPRPUPWJ","Sun Oct 04 2020 14:25:23 GMT-0400 (Eastern Daylight Time)","Sun Oct 04 2020 14:32:39 GMT-0400 (Eastern Daylight Time)","Mozilla/5.0 (Windows NT 6.1; Win64; x64) AppleWebKit/537.36 (KHTML, like Gecko) Chrome/85.0.4183.121 Safari/537.36",54,"[0.9, 0.5, 0.1]","[0.8, 0.4, 0.2]","[u'red', u'blue', u'black']","[u'left', u'middle', u'right']","[0.9, 0.5, 0.1]","[u'medium', u'high', u'low']","blue",50,"middle","high","True","False",73,2850,NA
"A1HMO9XPRPUPWJ","Sun Oct 04 2020 14:25:23 GMT-0400 (Eastern Daylight Time)","Sun Oct 04 2020 14:32:39 GMT-0400 (Eastern Daylight Time)","Mozilla/5.0 (Windows NT 6.1; Win64; x64) AppleWebKit/537.36 (KHTML, like Gecko) Chrome/85.0.4183.121 Safari/537.36",55,"[0.9, 0.5, 0.1]","[0.8, 0.4, 0.2]","[u'red', u'blue', u'black']","[u'left', u'middle', u'right']","[0.9, 0.5, 0.1]","[u'medium', u'high', u'low']","blue",50,"middle","high","True","False",125,2950,NA
"A1HMO9XPRPUPWJ","Sun Oct 04 2020 14:25:23 GMT-0400 (Eastern Daylight Time)","Sun Oct 04 2020 14:32:39 GMT-0400 (Eastern Daylight Time)","Mozilla/5.0 (Windows NT 6.1; Win64; x64) AppleWebKit/537.36 (KHTML, like Gecko) Chrome/85.0.4183.121 Safari/537.36",56,"[0.9, 0.5, 0.1]","[0.8, 0.4, 0.2]","[u'red', u'blue', u'black']","[u'left', u'middle', u'right']","[0.9, 0.5, 0.1]","[u'medium', u'high', u'low']","blue",50,"middle","high","True","False",240,3050,NA
"A1HMO9XPRPUPWJ","Sun Oct 04 2020 14:25:23 GMT-0400 (Eastern Daylight Time)","Sun Oct 04 2020 14:32:39 GMT-0400 (Eastern Daylight Time)","Mozilla/5.0 (Windows NT 6.1; Win64; x64) AppleWebKit/537.36 (KHTML, like Gecko) Chrome/85.0.4183.121 Safari/537.36",57,"[0.9, 0.5, 0.1]","[0.8, 0.4, 0.2]","[u'red', u'blue', u'black']","[u'left', u'middle', u'right']","[0.9, 0.5, 0.1]","[u'medium', u'high', u'low']","blue",50,"middle","high","True","False",266,3150,NA
"A1HMO9XPRPUPWJ","Sun Oct 04 2020 14:25:23 GMT-0400 (Eastern Daylight Time)","Sun Oct 04 2020 14:32:39 GMT-0400 (Eastern Daylight Time)","Mozilla/5.0 (Windows NT 6.1; Win64; x64) AppleWebKit/537.36 (KHTML, like Gecko) Chrome/85.0.4183.121 Safari/537.36",58,"[0.9, 0.5, 0.1]","[0.8, 0.4, 0.2]","[u'red', u'blue', u'black']","[u'left', u'middle', u'right']","[0.9, 0.5, 0.1]","[u'medium', u'high', u'low']","blue",50,"middle","high","True","False",272,3250,NA
"A1HMO9XPRPUPWJ","Sun Oct 04 2020 14:25:23 GMT-0400 (Eastern Daylight Time)","Sun Oct 04 2020 14:32:39 GMT-0400 (Eastern Daylight Time)","Mozilla/5.0 (Windows NT 6.1; Win64; x64) AppleWebKit/537.36 (KHTML, like Gecko) Chrome/85.0.4183.121 Safari/537.36",59,"[0.9, 0.5, 0.1]","[0.8, 0.4, 0.2]","[u'red', u'blue', u'black']","[u'left', u'middle', u'right']","[0.9, 0.5, 0.1]","[u'medium', u'high', u'low']","blue",50,"middle","high","True","False",253,3350,NA
"A1HMO9XPRPUPWJ","Sun Oct 04 2020 14:25:23 GMT-0400 (Eastern Daylight Time)","Sun Oct 04 2020 14:32:39 GMT-0400 (Eastern Daylight Time)","Mozilla/5.0 (Windows NT 6.1; Win64; x64) AppleWebKit/537.36 (KHTML, like Gecko) Chrome/85.0.4183.121 Safari/537.36",60,"[0.9, 0.5, 0.1]","[0.8, 0.4, 0.2]","[u'red', u'blue', u'black']","[u'left', u'middle', u'right']","[0.9, 0.5, 0.1]","[u'medium', u'high', u'low']","blue",50,"middle","high","True","False",254,3450,NA
"A1HMO9XPRPUPWJ","Sun Oct 04 2020 14:25:23 GMT-0400 (Eastern Daylight Time)","Sun Oct 04 2020 14:32:39 GMT-0400 (Eastern Daylight Time)","Mozilla/5.0 (Windows NT 6.1; Win64; x64) AppleWebKit/537.36 (KHTML, like Gecko) Chrome/85.0.4183.121 Safari/537.36",61,"[0.9, 0.5, 0.1]","[0.8, 0.4, 0.2]","[u'red', u'blue', u'black']","[u'left', u'middle', u'right']","[0.9, 0.5, 0.1]","[u'medium', u'high', u'low']","blue",50,"middle","high","False","True",229,3400,NA
"A1HMO9XPRPUPWJ","Sun Oct 04 2020 14:25:23 GMT-0400 (Eastern Daylight Time)","Sun Oct 04 2020 14:32:39 GMT-0400 (Eastern Daylight Time)","Mozilla/5.0 (Windows NT 6.1; Win64; x64) AppleWebKit/537.36 (KHTML, like Gecko) Chrome/85.0.4183.121 Safari/537.36",62,"[0.9, 0.5, 0.1]","[0.8, 0.4, 0.2]","[u'red', u'blue', u'black']","[u'left', u'middle', u'right']","[0.9, 0.5, 0.1]","[u'high', u'low', u'medium']","blue",50,"middle","low","False","False",247,3350,NA
"A1HMO9XPRPUPWJ","Sun Oct 04 2020 14:25:23 GMT-0400 (Eastern Daylight Time)","Sun Oct 04 2020 14:32:39 GMT-0400 (Eastern Daylight Time)","Mozilla/5.0 (Windows NT 6.1; Win64; x64) AppleWebKit/537.36 (KHTML, like Gecko) Chrome/85.0.4183.121 Safari/537.36",63,"[0.9, 0.5, 0.1]","[0.8, 0.4, 0.2]","[u'red', u'blue', u'black']","[u'left', u'middle', u'right']","[0.9, 0.5, 0.1]","[u'high', u'low', u'medium']","black",51,"right","medium","True","False",254,3450,NA
"A1HMO9XPRPUPWJ","Sun Oct 04 2020 14:25:23 GMT-0400 (Eastern Daylight Time)","Sun Oct 04 2020 14:32:39 GMT-0400 (Eastern Daylight Time)","Mozilla/5.0 (Windows NT 6.1; Win64; x64) AppleWebKit/537.36 (KHTML, like Gecko) Chrome/85.0.4183.121 Safari/537.36",64,"[0.9, 0.5, 0.1]","[0.8, 0.4, 0.2]","[u'red', u'blue', u'black']","[u'left', u'middle', u'right']","[0.9, 0.5, 0.1]","[u'high', u'low', u'medium']","black",51,"right","medium","False","False",216,3400,NA
"A1HMO9XPRPUPWJ","Sun Oct 04 2020 14:25:23 GMT-0400 (Eastern Daylight Time)","Sun Oct 04 2020 14:32:39 GMT-0400 (Eastern Daylight Time)","Mozilla/5.0 (Windows NT 6.1; Win64; x64) AppleWebKit/537.36 (KHTML, like Gecko) Chrome/85.0.4183.121 Safari/537.36",65,"[0.9, 0.5, 0.1]","[0.8, 0.4, 0.2]","[u'red', u'blue', u'black']","[u'left', u'middle', u'right']","[0.9, 0.5, 0.1]","[u'high', u'low', u'medium']","black",51,"right","medium","True","False",330,3500,NA
"A1HMO9XPRPUPWJ","Sun Oct 04 2020 14:25:23 GMT-0400 (Eastern Daylight Time)","Sun Oct 04 2020 14:32:39 GMT-0400 (Eastern Daylight Time)","Mozilla/5.0 (Windows NT 6.1; Win64; x64) AppleWebKit/537.36 (KHTML, like Gecko) Chrome/85.0.4183.121 Safari/537.36",66,"[0.9, 0.5, 0.1]","[0.8, 0.4, 0.2]","[u'red', u'blue', u'black']","[u'left', u'middle', u'right']","[0.9, 0.5, 0.1]","[u'high', u'low', u'medium']","black",51,"right","medium","False","False",250,3450,NA
"A1HMO9XPRPUPWJ","Sun Oct 04 2020 14:25:23 GMT-0400 (Eastern Daylight Time)","Sun Oct 04 2020 14:32:39 GMT-0400 (Eastern Daylight Time)","Mozilla/5.0 (Windows NT 6.1; Win64; x64) AppleWebKit/537.36 (KHTML, like Gecko) Chrome/85.0.4183.121 Safari/537.36",67,"[0.9, 0.5, 0.1]","[0.8, 0.4, 0.2]","[u'red', u'blue', u'black']","[u'left', u'middle', u'right']","[0.9, 0.5, 0.1]","[u'high', u'low', u'medium']","red",49,"left","high","True","False",268,3550,NA
"A1HMO9XPRPUPWJ","Sun Oct 04 2020 14:25:23 GMT-0400 (Eastern Daylight Time)","Sun Oct 04 2020 14:32:39 GMT-0400 (Eastern Daylight Time)","Mozilla/5.0 (Windows NT 6.1; Win64; x64) AppleWebKit/537.36 (KHTML, like Gecko) Chrome/85.0.4183.121 Safari/537.36",68,"[0.9, 0.5, 0.1]","[0.8, 0.4, 0.2]","[u'red', u'blue', u'black']","[u'left', u'middle', u'right']","[0.9, 0.5, 0.1]","[u'high', u'low', u'medium']","red",49,"left","high","True","False",257,3650,NA
"A1HMO9XPRPUPWJ","Sun Oct 04 2020 14:25:23 GMT-0400 (Eastern Daylight Time)","Sun Oct 04 2020 14:32:39 GMT-0400 (Eastern Daylight Time)","Mozilla/5.0 (Windows NT 6.1; Win64; x64) AppleWebKit/537.36 (KHTML, like Gecko) Chrome/85.0.4183.121 Safari/537.36",69,"[0.9, 0.5, 0.1]","[0.8, 0.4, 0.2]","[u'red', u'blue', u'black']","[u'left', u'middle', u'right']","[0.9, 0.5, 0.1]","[u'high', u'low', u'medium']","red",49,"left","high","True","False",217,3750,NA
"A1HMO9XPRPUPWJ","Sun Oct 04 2020 14:25:23 GMT-0400 (Eastern Daylight Time)","Sun Oct 04 2020 14:32:39 GMT-0400 (Eastern Daylight Time)","Mozilla/5.0 (Windows NT 6.1; Win64; x64) AppleWebKit/537.36 (KHTML, like Gecko) Chrome/85.0.4183.121 Safari/537.36",70,"[0.9, 0.5, 0.1]","[0.8, 0.4, 0.2]","[u'red', u'blue', u'black']","[u'left', u'middle', u'right']","[0.9, 0.5, 0.1]","[u'high', u'low', u'medium']","red",49,"left","high","True","False",362,3850,NA
"A1HMO9XPRPUPWJ","Sun Oct 04 2020 14:25:23 GMT-0400 (Eastern Daylight Time)","Sun Oct 04 2020 14:32:39 GMT-0400 (Eastern Daylight Time)","Mozilla/5.0 (Windows NT 6.1; Win64; x64) AppleWebKit/537.36 (KHTML, like Gecko) Chrome/85.0.4183.121 Safari/537.36",71,"[0.9, 0.5, 0.1]","[0.8, 0.4, 0.2]","[u'red', u'blue', u'black']","[u'left', u'middle', u'right']","[0.9, 0.5, 0.1]","[u'high', u'low', u'medium']","red",49,"left","high","True","False",248,3950,NA
"A1HMO9XPRPUPWJ","Sun Oct 04 2020 14:25:23 GMT-0400 (Eastern Daylight Time)","Sun Oct 04 2020 14:32:39 GMT-0400 (Eastern Daylight Time)","Mozilla/5.0 (Windows NT 6.1; Win64; x64) AppleWebKit/537.36 (KHTML, like Gecko) Chrome/85.0.4183.121 Safari/537.36",72,"[0.9, 0.5, 0.1]","[0.8, 0.4, 0.2]","[u'red', u'blue', u'black']","[u'left', u'middle', u'right']","[0.9, 0.5, 0.1]","[u'high', u'low', u'medium']","red",49,"left","high","True","False",211,4050,NA
"A1HMO9XPRPUPWJ","Sun Oct 04 2020 14:25:23 GMT-0400 (Eastern Daylight Time)","Sun Oct 04 2020 14:32:39 GMT-0400 (Eastern Daylight Time)","Mozilla/5.0 (Windows NT 6.1; Win64; x64) AppleWebKit/537.36 (KHTML, like Gecko) Chrome/85.0.4183.121 Safari/537.36",73,"[0.9, 0.5, 0.1]","[0.8, 0.4, 0.2]","[u'red', u'blue', u'black']","[u'left', u'middle', u'right']","[0.9, 0.5, 0.1]","[u'high', u'low', u'medium']","red",49,"left","high","True","False",259,4150,NA
"A1HMO9XPRPUPWJ","Sun Oct 04 2020 14:25:23 GMT-0400 (Eastern Daylight Time)","Sun Oct 04 2020 14:32:39 GMT-0400 (Eastern Daylight Time)","Mozilla/5.0 (Windows NT 6.1; Win64; x64) AppleWebKit/537.36 (KHTML, like Gecko) Chrome/85.0.4183.121 Safari/537.36",74,"[0.9, 0.5, 0.1]","[0.8, 0.4, 0.2]","[u'red', u'blue', u'black']","[u'left', u'middle', u'right']","[0.9, 0.5, 0.1]","[u'high', u'low', u'medium']","red",49,"left","high","True","False",289,4250,NA
"A1HMO9XPRPUPWJ","Sun Oct 04 2020 14:25:23 GMT-0400 (Eastern Daylight Time)","Sun Oct 04 2020 14:32:39 GMT-0400 (Eastern Daylight Time)","Mozilla/5.0 (Windows NT 6.1; Win64; x64) AppleWebKit/537.36 (KHTML, like Gecko) Chrome/85.0.4183.121 Safari/537.36",75,"[0.9, 0.5, 0.1]","[0.8, 0.4, 0.2]","[u'red', u'blue', u'black']","[u'left', u'middle', u'right']","[0.9, 0.5, 0.1]","[u'high', u'low', u'medium']","red",49,"left","high","True","True",439,4350,NA
"A1HMO9XPRPUPWJ","Sun Oct 04 2020 14:25:23 GMT-0400 (Eastern Daylight Time)","Sun Oct 04 2020 14:32:39 GMT-0400 (Eastern Daylight Time)","Mozilla/5.0 (Windows NT 6.1; Win64; x64) AppleWebKit/537.36 (KHTML, like Gecko) Chrome/85.0.4183.121 Safari/537.36",76,"[0.9, 0.5, 0.1]","[0.8, 0.4, 0.2]","[u'red', u'blue', u'black']","[u'left', u'middle', u'right']","[0.9, 0.5, 0.1]","[u'medium', u'low', u'high']","red",49,"left","medium","False","False",394,4300,NA
"A1HMO9XPRPUPWJ","Sun Oct 04 2020 14:25:23 GMT-0400 (Eastern Daylight Time)","Sun Oct 04 2020 14:32:39 GMT-0400 (Eastern Daylight Time)","Mozilla/5.0 (Windows NT 6.1; Win64; x64) AppleWebKit/537.36 (KHTML, like Gecko) Chrome/85.0.4183.121 Safari/537.36",77,"[0.9, 0.5, 0.1]","[0.8, 0.4, 0.2]","[u'red', u'blue', u'black']","[u'left', u'middle', u'right']","[0.9, 0.5, 0.1]","[u'medium', u'low', u'high']","blue",50,"middle","low","False","False",345,4250,NA
"A1HMO9XPRPUPWJ","Sun Oct 04 2020 14:25:23 GMT-0400 (Eastern Daylight Time)","Sun Oct 04 2020 14:32:39 GMT-0400 (Eastern Daylight Time)","Mozilla/5.0 (Windows NT 6.1; Win64; x64) AppleWebKit/537.36 (KHTML, like Gecko) Chrome/85.0.4183.121 Safari/537.36",78,"[0.9, 0.5, 0.1]","[0.8, 0.4, 0.2]","[u'red', u'blue', u'black']","[u'left', u'middle', u'right']","[0.9, 0.5, 0.1]","[u'medium', u'low', u'high']","black",51,"right","high","True","False",310,4350,NA
"A1HMO9XPRPUPWJ","Sun Oct 04 2020 14:25:23 GMT-0400 (Eastern Daylight Time)","Sun Oct 04 2020 14:32:39 GMT-0400 (Eastern Daylight Time)","Mozilla/5.0 (Windows NT 6.1; Win64; x64) AppleWebKit/537.36 (KHTML, like Gecko) Chrome/85.0.4183.121 Safari/537.36",79,"[0.9, 0.5, 0.1]","[0.8, 0.4, 0.2]","[u'red', u'blue', u'black']","[u'left', u'middle', u'right']","[0.9, 0.5, 0.1]","[u'medium', u'low', u'high']","black",51,"right","high","True","False",259,4450,NA
"A1HMO9XPRPUPWJ","Sun Oct 04 2020 14:25:23 GMT-0400 (Eastern Daylight Time)","Sun Oct 04 2020 14:32:39 GMT-0400 (Eastern Daylight Time)","Mozilla/5.0 (Windows NT 6.1; Win64; x64) AppleWebKit/537.36 (KHTML, like Gecko) Chrome/85.0.4183.121 Safari/537.36",80,"[0.9, 0.5, 0.1]","[0.8, 0.4, 0.2]","[u'red', u'blue', u'black']","[u'left', u'middle', u'right']","[0.9, 0.5, 0.1]","[u'medium', u'low', u'high']","black",51,"right","high","True","False",284,4550,NA
"A1HMO9XPRPUPWJ","Sun Oct 04 2020 14:25:23 GMT-0400 (Eastern Daylight Time)","Sun Oct 04 2020 14:32:39 GMT-0400 (Eastern Daylight Time)","Mozilla/5.0 (Windows NT 6.1; Win64; x64) AppleWebKit/537.36 (KHTML, like Gecko) Chrome/85.0.4183.121 Safari/537.36",81,"[0.9, 0.5, 0.1]","[0.8, 0.4, 0.2]","[u'red', u'blue', u'black']","[u'left', u'middle', u'right']","[0.8, 0.4, 0.2]","[u'high', u'medium', u'low']","black",51,"right","low","True","False",338,4650,NA
"A1HMO9XPRPUPWJ","Sun Oct 04 2020 14:25:23 GMT-0400 (Eastern Daylight Time)","Sun Oct 04 2020 14:32:39 GMT-0400 (Eastern Daylight Time)","Mozilla/5.0 (Windows NT 6.1; Win64; x64) AppleWebKit/537.36 (KHTML, like Gecko) Chrome/85.0.4183.121 Safari/537.36",82,"[0.9, 0.5, 0.1]","[0.8, 0.4, 0.2]","[u'red', u'blue', u'black']","[u'left', u'middle', u'right']","[0.8, 0.4, 0.2]","[u'high', u'medium', u'low']","black",51,"right","low","False","False",243,4600,NA
"A1HMO9XPRPUPWJ","Sun Oct 04 2020 14:25:23 GMT-0400 (Eastern Daylight Time)","Sun Oct 04 2020 14:32:39 GMT-0400 (Eastern Daylight Time)","Mozilla/5.0 (Windows NT 6.1; Win64; x64) AppleWebKit/537.36 (KHTML, like Gecko) Chrome/85.0.4183.121 Safari/537.36",83,"[0.9, 0.5, 0.1]","[0.8, 0.4, 0.2]","[u'red', u'blue', u'black']","[u'left', u'middle', u'right']","[0.8, 0.4, 0.2]","[u'high', u'medium', u'low']","blue",50,"middle","medium","False","False",258,4550,NA
"A1HMO9XPRPUPWJ","Sun Oct 04 2020 14:25:23 GMT-0400 (Eastern Daylight Time)","Sun Oct 04 2020 14:32:39 GMT-0400 (Eastern Daylight Time)","Mozilla/5.0 (Windows NT 6.1; Win64; x64) AppleWebKit/537.36 (KHTML, like Gecko) Chrome/85.0.4183.121 Safari/537.36",84,"[0.9, 0.5, 0.1]","[0.8, 0.4, 0.2]","[u'red', u'blue', u'black']","[u'left', u'middle', u'right']","[0.8, 0.4, 0.2]","[u'high', u'medium', u'low']","red",49,"left","high","True","False",244,4650,NA
"A1HMO9XPRPUPWJ","Sun Oct 04 2020 14:25:23 GMT-0400 (Eastern Daylight Time)","Sun Oct 04 2020 14:32:39 GMT-0400 (Eastern Daylight Time)","Mozilla/5.0 (Windows NT 6.1; Win64; x64) AppleWebKit/537.36 (KHTML, like Gecko) Chrome/85.0.4183.121 Safari/537.36",85,"[0.9, 0.5, 0.1]","[0.8, 0.4, 0.2]","[u'red', u'blue', u'black']","[u'left', u'middle', u'right']","[0.8, 0.4, 0.2]","[u'high', u'medium', u'low']","red",49,"left","high","False","False",273,4600,NA
"A1HMO9XPRPUPWJ","Sun Oct 04 2020 14:25:23 GMT-0400 (Eastern Daylight Time)","Sun Oct 04 2020 14:32:39 GMT-0400 (Eastern Daylight Time)","Mozilla/5.0 (Windows NT 6.1; Win64; x64) AppleWebKit/537.36 (KHTML, like Gecko) Chrome/85.0.4183.121 Safari/537.36",86,"[0.9, 0.5, 0.1]","[0.8, 0.4, 0.2]","[u'red', u'blue', u'black']","[u'left', u'middle', u'right']","[0.8, 0.4, 0.2]","[u'high', u'medium', u'low']","red",49,"left","high","True","False",249,4700,NA
"A1HMO9XPRPUPWJ","Sun Oct 04 2020 14:25:23 GMT-0400 (Eastern Daylight Time)","Sun Oct 04 2020 14:32:39 GMT-0400 (Eastern Daylight Time)","Mozilla/5.0 (Windows NT 6.1; Win64; x64) AppleWebKit/537.36 (KHTML, like Gecko) Chrome/85.0.4183.121 Safari/537.36",87,"[0.9, 0.5, 0.1]","[0.8, 0.4, 0.2]","[u'red', u'blue', u'black']","[u'left', u'middle', u'right']","[0.8, 0.4, 0.2]","[u'high', u'medium', u'low']","red",49,"left","high","True","False",234,4800,NA
"A1HMO9XPRPUPWJ","Sun Oct 04 2020 14:25:23 GMT-0400 (Eastern Daylight Time)","Sun Oct 04 2020 14:32:39 GMT-0400 (Eastern Daylight Time)","Mozilla/5.0 (Windows NT 6.1; Win64; x64) AppleWebKit/537.36 (KHTML, like Gecko) Chrome/85.0.4183.121 Safari/537.36",88,"[0.9, 0.5, 0.1]","[0.8, 0.4, 0.2]","[u'red', u'blue', u'black']","[u'left', u'middle', u'right']","[0.8, 0.4, 0.2]","[u'high', u'medium', u'low']","red",49,"left","high","True","False",259,4900,NA
"A1HMO9XPRPUPWJ","Sun Oct 04 2020 14:25:23 GMT-0400 (Eastern Daylight Time)","Sun Oct 04 2020 14:32:39 GMT-0400 (Eastern Daylight Time)","Mozilla/5.0 (Windows NT 6.1; Win64; x64) AppleWebKit/537.36 (KHTML, like Gecko) Chrome/85.0.4183.121 Safari/537.36",89,"[0.9, 0.5, 0.1]","[0.8, 0.4, 0.2]","[u'red', u'blue', u'black']","[u'left', u'middle', u'right']","[0.8, 0.4, 0.2]","[u'high', u'medium', u'low']","red",49,"left","high","True","False",227,5000,NA
"A1HMO9XPRPUPWJ","Sun Oct 04 2020 14:25:23 GMT-0400 (Eastern Daylight Time)","Sun Oct 04 2020 14:32:39 GMT-0400 (Eastern Daylight Time)","Mozilla/5.0 (Windows NT 6.1; Win64; x64) AppleWebKit/537.36 (KHTML, like Gecko) Chrome/85.0.4183.121 Safari/537.36",90,"[0.9, 0.5, 0.1]","[0.8, 0.4, 0.2]","[u'red', u'blue', u'black']","[u'left', u'middle', u'right']","[0.8, 0.4, 0.2]","[u'high', u'medium', u'low']","red",49,"left","high","True","False",253,5100,NA
"A1HMO9XPRPUPWJ","Sun Oct 04 2020 14:25:23 GMT-0400 (Eastern Daylight Time)","Sun Oct 04 2020 14:32:39 GMT-0400 (Eastern Daylight Time)","Mozilla/5.0 (Windows NT 6.1; Win64; x64) AppleWebKit/537.36 (KHTML, like Gecko) Chrome/85.0.4183.121 Safari/537.36",91,"[0.9, 0.5, 0.1]","[0.8, 0.4, 0.2]","[u'red', u'blue', u'black']","[u'left', u'middle', u'right']","[0.8, 0.4, 0.2]","[u'high', u'medium', u'low']","red",49,"left","high","True","False",239,5200,NA
"A1HMO9XPRPUPWJ","Sun Oct 04 2020 14:25:23 GMT-0400 (Eastern Daylight Time)","Sun Oct 04 2020 14:32:39 GMT-0400 (Eastern Daylight Time)","Mozilla/5.0 (Windows NT 6.1; Win64; x64) AppleWebKit/537.36 (KHTML, like Gecko) Chrome/85.0.4183.121 Safari/537.36",92,"[0.9, 0.5, 0.1]","[0.8, 0.4, 0.2]","[u'red', u'blue', u'black']","[u'left', u'middle', u'right']","[0.8, 0.4, 0.2]","[u'high', u'medium', u'low']","red",49,"left","high","False","True",265,5150,NA
"A1HMO9XPRPUPWJ","Sun Oct 04 2020 14:25:23 GMT-0400 (Eastern Daylight Time)","Sun Oct 04 2020 14:32:39 GMT-0400 (Eastern Daylight Time)","Mozilla/5.0 (Windows NT 6.1; Win64; x64) AppleWebKit/537.36 (KHTML, like Gecko) Chrome/85.0.4183.121 Safari/537.36",93,"[0.9, 0.5, 0.1]","[0.8, 0.4, 0.2]","[u'red', u'blue', u'black']","[u'left', u'middle', u'right']","[0.8, 0.4, 0.2]","[u'low', u'medium', u'high']","blue",50,"middle","medium","True","False",264,5250,NA
"A1HMO9XPRPUPWJ","Sun Oct 04 2020 14:25:23 GMT-0400 (Eastern Daylight Time)","Sun Oct 04 2020 14:32:39 GMT-0400 (Eastern Daylight Time)","Mozilla/5.0 (Windows NT 6.1; Win64; x64) AppleWebKit/537.36 (KHTML, like Gecko) Chrome/85.0.4183.121 Safari/537.36",94,"[0.9, 0.5, 0.1]","[0.8, 0.4, 0.2]","[u'red', u'blue', u'black']","[u'left', u'middle', u'right']","[0.8, 0.4, 0.2]","[u'low', u'medium', u'high']","blue",50,"middle","medium","False","False",250,5200,NA
"A1HMO9XPRPUPWJ","Sun Oct 04 2020 14:25:23 GMT-0400 (Eastern Daylight Time)","Sun Oct 04 2020 14:32:39 GMT-0400 (Eastern Daylight Time)","Mozilla/5.0 (Windows NT 6.1; Win64; x64) AppleWebKit/537.36 (KHTML, like Gecko) Chrome/85.0.4183.121 Safari/537.36",95,"[0.9, 0.5, 0.1]","[0.8, 0.4, 0.2]","[u'red', u'blue', u'black']","[u'left', u'middle', u'right']","[0.8, 0.4, 0.2]","[u'low', u'medium', u'high']","blue",50,"middle","medium","False","False",227,5150,NA
"A1HMO9XPRPUPWJ","Sun Oct 04 2020 14:25:23 GMT-0400 (Eastern Daylight Time)","Sun Oct 04 2020 14:32:39 GMT-0400 (Eastern Daylight Time)","Mozilla/5.0 (Windows NT 6.1; Win64; x64) AppleWebKit/537.36 (KHTML, like Gecko) Chrome/85.0.4183.121 Safari/537.36",96,"[0.9, 0.5, 0.1]","[0.8, 0.4, 0.2]","[u'red', u'blue', u'black']","[u'left', u'middle', u'right']","[0.8, 0.4, 0.2]","[u'low', u'medium', u'high']","black",51,"right","high","False","False",197,5100,NA
"A1HMO9XPRPUPWJ","Sun Oct 04 2020 14:25:23 GMT-0400 (Eastern Daylight Time)","Sun Oct 04 2020 14:32:39 GMT-0400 (Eastern Daylight Time)","Mozilla/5.0 (Windows NT 6.1; Win64; x64) AppleWebKit/537.36 (KHTML, like Gecko) Chrome/85.0.4183.121 Safari/537.36",97,"[0.9, 0.5, 0.1]","[0.8, 0.4, 0.2]","[u'red', u'blue', u'black']","[u'left', u'middle', u'right']","[0.8, 0.4, 0.2]","[u'low', u'medium', u'high']","black",51,"right","high","True","False",593,5200,NA
"A1HMO9XPRPUPWJ","Sun Oct 04 2020 14:25:23 GMT-0400 (Eastern Daylight Time)","Sun Oct 04 2020 14:32:39 GMT-0400 (Eastern Daylight Time)","Mozilla/5.0 (Windows NT 6.1; Win64; x64) AppleWebKit/537.36 (KHTML, like Gecko) Chrome/85.0.4183.121 Safari/537.36",98,"[0.9, 0.5, 0.1]","[0.8, 0.4, 0.2]","[u'red', u'blue', u'black']","[u'left', u'middle', u'right']","[0.8, 0.4, 0.2]","[u'low', u'medium', u'high']","black",51,"right","high","False","False",251,5150,NA
"A1HMO9XPRPUPWJ","Sun Oct 04 2020 14:25:23 GMT-0400 (Eastern Daylight Time)","Sun Oct 04 2020 14:32:39 GMT-0400 (Eastern Daylight Time)","Mozilla/5.0 (Windows NT 6.1; Win64; x64) AppleWebKit/537.36 (KHTML, like Gecko) Chrome/85.0.4183.121 Safari/537.36",99,"[0.9, 0.5, 0.1]","[0.8, 0.4, 0.2]","[u'red', u'blue', u'black']","[u'left', u'middle', u'right']","[0.8, 0.4, 0.2]","[u'low', u'medium', u'high']","red",49,"left","low","False","False",208,5100,NA
"A1HMO9XPRPUPWJ","Sun Oct 04 2020 14:25:23 GMT-0400 (Eastern Daylight Time)","Sun Oct 04 2020 14:32:39 GMT-0400 (Eastern Daylight Time)","Mozilla/5.0 (Windows NT 6.1; Win64; x64) AppleWebKit/537.36 (KHTML, like Gecko) Chrome/85.0.4183.121 Safari/537.36",100,"[0.9, 0.5, 0.1]","[0.8, 0.4, 0.2]","[u'red', u'blue', u'black']","[u'left', u'middle', u'right']","[0.8, 0.4, 0.2]","[u'low', u'medium', u'high']","blue",50,"middle","medium","True","False",286,5200,NA
"A1HMO9XPRPUPWJ","Sun Oct 04 2020 14:25:23 GMT-0400 (Eastern Daylight Time)","Sun Oct 04 2020 14:32:39 GMT-0400 (Eastern Daylight Time)","Mozilla/5.0 (Windows NT 6.1; Win64; x64) AppleWebKit/537.36 (KHTML, like Gecko) Chrome/85.0.4183.121 Safari/537.36",101,"[0.9, 0.5, 0.1]","[0.8, 0.4, 0.2]","[u'red', u'blue', u'black']","[u'left', u'middle', u'right']","[0.8, 0.4, 0.2]","[u'low', u'medium', u'high']","blue",50,"middle","medium","False","False",239,5150,NA
"A1HMO9XPRPUPWJ","Sun Oct 04 2020 14:25:23 GMT-0400 (Eastern Daylight Time)","Sun Oct 04 2020 14:32:39 GMT-0400 (Eastern Daylight Time)","Mozilla/5.0 (Windows NT 6.1; Win64; x64) AppleWebKit/537.36 (KHTML, like Gecko) Chrome/85.0.4183.121 Safari/537.36",102,"[0.9, 0.5, 0.1]","[0.8, 0.4, 0.2]","[u'red', u'blue', u'black']","[u'left', u'middle', u'right']","[0.8, 0.4, 0.2]","[u'low', u'medium', u'high']","blue",50,"middle","medium","False","False",596,5100,NA
"A1HMO9XPRPUPWJ","Sun Oct 04 2020 14:25:23 GMT-0400 (Eastern Daylight Time)","Sun Oct 04 2020 14:32:39 GMT-0400 (Eastern Daylight Time)","Mozilla/5.0 (Windows NT 6.1; Win64; x64) AppleWebKit/537.36 (KHTML, like Gecko) Chrome/85.0.4183.121 Safari/537.36",103,"[0.9, 0.5, 0.1]","[0.8, 0.4, 0.2]","[u'red', u'blue', u'black']","[u'left', u'middle', u'right']","[0.8, 0.4, 0.2]","[u'low', u'medium', u'high']","red",49,"left","low","False","False",236,5050,NA
"A1HMO9XPRPUPWJ","Sun Oct 04 2020 14:25:23 GMT-0400 (Eastern Daylight Time)","Sun Oct 04 2020 14:32:39 GMT-0400 (Eastern Daylight Time)","Mozilla/5.0 (Windows NT 6.1; Win64; x64) AppleWebKit/537.36 (KHTML, like Gecko) Chrome/85.0.4183.121 Safari/537.36",104,"[0.9, 0.5, 0.1]","[0.8, 0.4, 0.2]","[u'red', u'blue', u'black']","[u'left', u'middle', u'right']","[0.8, 0.4, 0.2]","[u'low', u'medium', u'high']","black",51,"right","high","False","False",236,5000,NA
"A1HMO9XPRPUPWJ","Sun Oct 04 2020 14:25:23 GMT-0400 (Eastern Daylight Time)","Sun Oct 04 2020 14:32:39 GMT-0400 (Eastern Daylight Time)","Mozilla/5.0 (Windows NT 6.1; Win64; x64) AppleWebKit/537.36 (KHTML, like Gecko) Chrome/85.0.4183.121 Safari/537.36",105,"[0.9, 0.5, 0.1]","[0.8, 0.4, 0.2]","[u'red', u'blue', u'black']","[u'left', u'middle', u'right']","[0.8, 0.4, 0.2]","[u'low', u'medium', u'high']","black",51,"right","high","True","False",179,5100,NA
"A1HMO9XPRPUPWJ","Sun Oct 04 2020 14:25:23 GMT-0400 (Eastern Daylight Time)","Sun Oct 04 2020 14:32:39 GMT-0400 (Eastern Daylight Time)","Mozilla/5.0 (Windows NT 6.1; Win64; x64) AppleWebKit/537.36 (KHTML, like Gecko) Chrome/85.0.4183.121 Safari/537.36",106,"[0.9, 0.5, 0.1]","[0.8, 0.4, 0.2]","[u'red', u'blue', u'black']","[u'left', u'middle', u'right']","[0.8, 0.4, 0.2]","[u'low', u'medium', u'high']","black",51,"right","high","False","False",248,5050,NA
"A1HMO9XPRPUPWJ","Sun Oct 04 2020 14:25:23 GMT-0400 (Eastern Daylight Time)","Sun Oct 04 2020 14:32:39 GMT-0400 (Eastern Daylight Time)","Mozilla/5.0 (Windows NT 6.1; Win64; x64) AppleWebKit/537.36 (KHTML, like Gecko) Chrome/85.0.4183.121 Safari/537.36",107,"[0.9, 0.5, 0.1]","[0.8, 0.4, 0.2]","[u'red', u'blue', u'black']","[u'left', u'middle', u'right']","[0.8, 0.4, 0.2]","[u'low', u'medium', u'high']","red",49,"left","low","True","False",267,5150,NA
"A1HMO9XPRPUPWJ","Sun Oct 04 2020 14:25:23 GMT-0400 (Eastern Daylight Time)","Sun Oct 04 2020 14:32:39 GMT-0400 (Eastern Daylight Time)","Mozilla/5.0 (Windows NT 6.1; Win64; x64) AppleWebKit/537.36 (KHTML, like Gecko) Chrome/85.0.4183.121 Safari/537.36",108,"[0.9, 0.5, 0.1]","[0.8, 0.4, 0.2]","[u'red', u'blue', u'black']","[u'left', u'middle', u'right']","[0.8, 0.4, 0.2]","[u'low', u'medium', u'high']","red",49,"left","low","True","False",218,5250,NA
"A1HMO9XPRPUPWJ","Sun Oct 04 2020 14:25:23 GMT-0400 (Eastern Daylight Time)","Sun Oct 04 2020 14:32:39 GMT-0400 (Eastern Daylight Time)","Mozilla/5.0 (Windows NT 6.1; Win64; x64) AppleWebKit/537.36 (KHTML, like Gecko) Chrome/85.0.4183.121 Safari/537.36",109,"[0.9, 0.5, 0.1]","[0.8, 0.4, 0.2]","[u'red', u'blue', u'black']","[u'left', u'middle', u'right']","[0.8, 0.4, 0.2]","[u'low', u'medium', u'high']","red",49,"left","low","False","False",297,5200,NA
"A1HMO9XPRPUPWJ","Sun Oct 04 2020 14:25:23 GMT-0400 (Eastern Daylight Time)","Sun Oct 04 2020 14:32:39 GMT-0400 (Eastern Daylight Time)","Mozilla/5.0 (Windows NT 6.1; Win64; x64) AppleWebKit/537.36 (KHTML, like Gecko) Chrome/85.0.4183.121 Safari/537.36",110,"[0.9, 0.5, 0.1]","[0.8, 0.4, 0.2]","[u'red', u'blue', u'black']","[u'left', u'middle', u'right']","[0.8, 0.4, 0.2]","[u'low', u'medium', u'high']","red",49,"left","low","False","False",257,5150,NA
"A1HMO9XPRPUPWJ","Sun Oct 04 2020 14:25:23 GMT-0400 (Eastern Daylight Time)","Sun Oct 04 2020 14:32:39 GMT-0400 (Eastern Daylight Time)","Mozilla/5.0 (Windows NT 6.1; Win64; x64) AppleWebKit/537.36 (KHTML, like Gecko) Chrome/85.0.4183.121 Safari/537.36",111,"[0.9, 0.5, 0.1]","[0.8, 0.4, 0.2]","[u'red', u'blue', u'black']","[u'left', u'middle', u'right']","[0.8, 0.4, 0.2]","[u'low', u'medium', u'high']","blue",50,"middle","medium","True","False",217,5250,NA
"A1HMO9XPRPUPWJ","Sun Oct 04 2020 14:25:23 GMT-0400 (Eastern Daylight Time)","Sun Oct 04 2020 14:32:39 GMT-0400 (Eastern Daylight Time)","Mozilla/5.0 (Windows NT 6.1; Win64; x64) AppleWebKit/537.36 (KHTML, like Gecko) Chrome/85.0.4183.121 Safari/537.36",112,"[0.9, 0.5, 0.1]","[0.8, 0.4, 0.2]","[u'red', u'blue', u'black']","[u'left', u'middle', u'right']","[0.8, 0.4, 0.2]","[u'low', u'medium', u'high']","blue",50,"middle","medium","False","False",246,5200,NA
"A1HMO9XPRPUPWJ","Sun Oct 04 2020 14:25:23 GMT-0400 (Eastern Daylight Time)","Sun Oct 04 2020 14:32:39 GMT-0400 (Eastern Daylight Time)","Mozilla/5.0 (Windows NT 6.1; Win64; x64) AppleWebKit/537.36 (KHTML, like Gecko) Chrome/85.0.4183.121 Safari/537.36",113,"[0.9, 0.5, 0.1]","[0.8, 0.4, 0.2]","[u'red', u'blue', u'black']","[u'left', u'middle', u'right']","[0.8, 0.4, 0.2]","[u'low', u'medium', u'high']","blue",50,"middle","medium","True","False",273,5300,NA
"A1HMO9XPRPUPWJ","Sun Oct 04 2020 14:25:23 GMT-0400 (Eastern Daylight Time)","Sun Oct 04 2020 14:32:39 GMT-0400 (Eastern Daylight Time)","Mozilla/5.0 (Windows NT 6.1; Win64; x64) AppleWebKit/537.36 (KHTML, like Gecko) Chrome/85.0.4183.121 Safari/537.36",114,"[0.9, 0.5, 0.1]","[0.8, 0.4, 0.2]","[u'red', u'blue', u'black']","[u'left', u'middle', u'right']","[0.8, 0.4, 0.2]","[u'low', u'medium', u'high']","blue",50,"middle","medium","False","False",282,5250,NA
"A1HMO9XPRPUPWJ","Sun Oct 04 2020 14:25:23 GMT-0400 (Eastern Daylight Time)","Sun Oct 04 2020 14:32:39 GMT-0400 (Eastern Daylight Time)","Mozilla/5.0 (Windows NT 6.1; Win64; x64) AppleWebKit/537.36 (KHTML, like Gecko) Chrome/85.0.4183.121 Safari/537.36",115,"[0.9, 0.5, 0.1]","[0.8, 0.4, 0.2]","[u'red', u'blue', u'black']","[u'left', u'middle', u'right']","[0.8, 0.4, 0.2]","[u'low', u'medium', u'high']","black",51,"right","high","False","False",249,5200,NA
"A1HMO9XPRPUPWJ","Sun Oct 04 2020 14:25:23 GMT-0400 (Eastern Daylight Time)","Sun Oct 04 2020 14:32:39 GMT-0400 (Eastern Daylight Time)","Mozilla/5.0 (Windows NT 6.1; Win64; x64) AppleWebKit/537.36 (KHTML, like Gecko) Chrome/85.0.4183.121 Safari/537.36",116,"[0.9, 0.5, 0.1]","[0.8, 0.4, 0.2]","[u'red', u'blue', u'black']","[u'left', u'middle', u'right']","[0.8, 0.4, 0.2]","[u'low', u'medium', u'high']","black",51,"right","high","True","False",330,5300,NA
"A1HMO9XPRPUPWJ","Sun Oct 04 2020 14:25:23 GMT-0400 (Eastern Daylight Time)","Sun Oct 04 2020 14:32:39 GMT-0400 (Eastern Daylight Time)","Mozilla/5.0 (Windows NT 6.1; Win64; x64) AppleWebKit/537.36 (KHTML, like Gecko) Chrome/85.0.4183.121 Safari/537.36",117,"[0.9, 0.5, 0.1]","[0.8, 0.4, 0.2]","[u'red', u'blue', u'black']","[u'left', u'middle', u'right']","[0.8, 0.4, 0.2]","[u'low', u'medium', u'high']","black",51,"right","high","True","False",265,5400,NA
"A1HMO9XPRPUPWJ","Sun Oct 04 2020 14:25:23 GMT-0400 (Eastern Daylight Time)","Sun Oct 04 2020 14:32:39 GMT-0400 (Eastern Daylight Time)","Mozilla/5.0 (Windows NT 6.1; Win64; x64) AppleWebKit/537.36 (KHTML, like Gecko) Chrome/85.0.4183.121 Safari/537.36",118,"[0.9, 0.5, 0.1]","[0.8, 0.4, 0.2]","[u'red', u'blue', u'black']","[u'left', u'middle', u'right']","[0.8, 0.4, 0.2]","[u'low', u'medium', u'high']","black",51,"right","high","True","False",510,5500,NA
"A1HMO9XPRPUPWJ","Sun Oct 04 2020 14:25:23 GMT-0400 (Eastern Daylight Time)","Sun Oct 04 2020 14:32:39 GMT-0400 (Eastern Daylight Time)","Mozilla/5.0 (Windows NT 6.1; Win64; x64) AppleWebKit/537.36 (KHTML, like Gecko) Chrome/85.0.4183.121 Safari/537.36",119,"[0.9, 0.5, 0.1]","[0.8, 0.4, 0.2]","[u'red', u'blue', u'black']","[u'left', u'middle', u'right']","[0.8, 0.4, 0.2]","[u'low', u'medium', u'high']","black",51,"right","high","True","False",325,5600,NA
"A1HMO9XPRPUPWJ","Sun Oct 04 2020 14:25:23 GMT-0400 (Eastern Daylight Time)","Sun Oct 04 2020 14:32:39 GMT-0400 (Eastern Daylight Time)","Mozilla/5.0 (Windows NT 6.1; Win64; x64) AppleWebKit/537.36 (KHTML, like Gecko) Chrome/85.0.4183.121 Safari/537.36",120,"[0.9, 0.5, 0.1]","[0.8, 0.4, 0.2]","[u'red', u'blue', u'black']","[u'left', u'middle', u'right']","[0.8, 0.4, 0.2]","[u'low', u'medium', u'high']","black",51,"right","high","True","False",381,5700,NA
"A1HMO9XPRPUPWJ","Sun Oct 04 2020 14:25:23 GMT-0400 (Eastern Daylight Time)","Sun Oct 04 2020 14:32:39 GMT-0400 (Eastern Daylight Time)","Mozilla/5.0 (Windows NT 6.1; Win64; x64) AppleWebKit/537.36 (KHTML, like Gecko) Chrome/85.0.4183.121 Safari/537.36",121,"[0.9, 0.5, 0.1]","[0.8, 0.4, 0.2]","[u'red', u'blue', u'black']","[u'left', u'middle', u'right']","[0.8, 0.4, 0.2]","[u'high', u'medium', u'low']","black",51,"right","low","False","False",2082,5650,NA
"A1HMO9XPRPUPWJ","Sun Oct 04 2020 14:25:23 GMT-0400 (Eastern Daylight Time)","Sun Oct 04 2020 14:32:39 GMT-0400 (Eastern Daylight Time)","Mozilla/5.0 (Windows NT 6.1; Win64; x64) AppleWebKit/537.36 (KHTML, like Gecko) Chrome/85.0.4183.121 Safari/537.36",122,"[0.9, 0.5, 0.1]","[0.8, 0.4, 0.2]","[u'red', u'blue', u'black']","[u'left', u'middle', u'right']","[0.8, 0.4, 0.2]","[u'high', u'medium', u'low']","red",49,"left","high","True","False",339,5750,NA
"A1HMO9XPRPUPWJ","Sun Oct 04 2020 14:25:23 GMT-0400 (Eastern Daylight Time)","Sun Oct 04 2020 14:32:39 GMT-0400 (Eastern Daylight Time)","Mozilla/5.0 (Windows NT 6.1; Win64; x64) AppleWebKit/537.36 (KHTML, like Gecko) Chrome/85.0.4183.121 Safari/537.36",123,"[0.9, 0.5, 0.1]","[0.8, 0.4, 0.2]","[u'red', u'blue', u'black']","[u'left', u'middle', u'right']","[0.8, 0.4, 0.2]","[u'high', u'medium', u'low']","red",49,"left","high","True","False",372,5850,NA
"A1HMO9XPRPUPWJ","Sun Oct 04 2020 14:25:23 GMT-0400 (Eastern Daylight Time)","Sun Oct 04 2020 14:32:39 GMT-0400 (Eastern Daylight Time)","Mozilla/5.0 (Windows NT 6.1; Win64; x64) AppleWebKit/537.36 (KHTML, like Gecko) Chrome/85.0.4183.121 Safari/537.36",124,"[0.9, 0.5, 0.1]","[0.8, 0.4, 0.2]","[u'red', u'blue', u'black']","[u'left', u'middle', u'right']","[0.8, 0.4, 0.2]","[u'high', u'medium', u'low']","red",49,"left","high","True","False",266,5950,NA
"A1HMO9XPRPUPWJ","Sun Oct 04 2020 14:25:23 GMT-0400 (Eastern Daylight Time)","Sun Oct 04 2020 14:32:39 GMT-0400 (Eastern Daylight Time)","Mozilla/5.0 (Windows NT 6.1; Win64; x64) AppleWebKit/537.36 (KHTML, like Gecko) Chrome/85.0.4183.121 Safari/537.36",125,"[0.9, 0.5, 0.1]","[0.8, 0.4, 0.2]","[u'red', u'blue', u'black']","[u'left', u'middle', u'right']","[0.8, 0.4, 0.2]","[u'high', u'medium', u'low']","red",49,"left","high","True","False",241,6050,NA
"A1HMO9XPRPUPWJ","Sun Oct 04 2020 14:25:23 GMT-0400 (Eastern Daylight Time)","Sun Oct 04 2020 14:32:39 GMT-0400 (Eastern Daylight Time)","Mozilla/5.0 (Windows NT 6.1; Win64; x64) AppleWebKit/537.36 (KHTML, like Gecko) Chrome/85.0.4183.121 Safari/537.36",126,"[0.9, 0.5, 0.1]","[0.8, 0.4, 0.2]","[u'red', u'blue', u'black']","[u'left', u'middle', u'right']","[0.8, 0.4, 0.2]","[u'high', u'medium', u'low']","red",49,"left","high","True","False",290,6150,NA
"A1HMO9XPRPUPWJ","Sun Oct 04 2020 14:25:23 GMT-0400 (Eastern Daylight Time)","Sun Oct 04 2020 14:32:39 GMT-0400 (Eastern Daylight Time)","Mozilla/5.0 (Windows NT 6.1; Win64; x64) AppleWebKit/537.36 (KHTML, like Gecko) Chrome/85.0.4183.121 Safari/537.36",127,"[0.9, 0.5, 0.1]","[0.8, 0.4, 0.2]","[u'red', u'blue', u'black']","[u'left', u'middle', u'right']","[0.8, 0.4, 0.2]","[u'high', u'medium', u'low']","red",49,"left","high","True","False",297,6250,NA
"A1HMO9XPRPUPWJ","Sun Oct 04 2020 14:25:23 GMT-0400 (Eastern Daylight Time)","Sun Oct 04 2020 14:32:39 GMT-0400 (Eastern Daylight Time)","Mozilla/5.0 (Windows NT 6.1; Win64; x64) AppleWebKit/537.36 (KHTML, like Gecko) Chrome/85.0.4183.121 Safari/537.36",128,"[0.9, 0.5, 0.1]","[0.8, 0.4, 0.2]","[u'red', u'blue', u'black']","[u'left', u'middle', u'right']","[0.8, 0.4, 0.2]","[u'high', u'medium', u'low']","red",49,"left","high","False","False",738,6200,NA
"A1HMO9XPRPUPWJ","Sun Oct 04 2020 14:25:23 GMT-0400 (Eastern Daylight Time)","Sun Oct 04 2020 14:32:39 GMT-0400 (Eastern Daylight Time)","Mozilla/5.0 (Windows NT 6.1; Win64; x64) AppleWebKit/537.36 (KHTML, like Gecko) Chrome/85.0.4183.121 Safari/537.36",129,"[0.9, 0.5, 0.1]","[0.8, 0.4, 0.2]","[u'red', u'blue', u'black']","[u'left', u'middle', u'right']","[0.8, 0.4, 0.2]","[u'high', u'medium', u'low']","blue",50,"middle","medium","True","False",312,6300,NA
"A1HMO9XPRPUPWJ","Sun Oct 04 2020 14:25:23 GMT-0400 (Eastern Daylight Time)","Sun Oct 04 2020 14:32:39 GMT-0400 (Eastern Daylight Time)","Mozilla/5.0 (Windows NT 6.1; Win64; x64) AppleWebKit/537.36 (KHTML, like Gecko) Chrome/85.0.4183.121 Safari/537.36",130,"[0.9, 0.5, 0.1]","[0.8, 0.4, 0.2]","[u'red', u'blue', u'black']","[u'left', u'middle', u'right']","[0.8, 0.4, 0.2]","[u'high', u'medium', u'low']","blue",50,"middle","medium","False","False",265,6250,NA
"A1HMO9XPRPUPWJ","Sun Oct 04 2020 14:25:23 GMT-0400 (Eastern Daylight Time)","Sun Oct 04 2020 14:32:39 GMT-0400 (Eastern Daylight Time)","Mozilla/5.0 (Windows NT 6.1; Win64; x64) AppleWebKit/537.36 (KHTML, like Gecko) Chrome/85.0.4183.121 Safari/537.36",131,"[0.9, 0.5, 0.1]","[0.8, 0.4, 0.2]","[u'red', u'blue', u'black']","[u'left', u'middle', u'right']","[0.8, 0.4, 0.2]","[u'high', u'medium', u'low']","blue",50,"middle","medium","True","False",401,6350,NA
"A1HMO9XPRPUPWJ","Sun Oct 04 2020 14:25:23 GMT-0400 (Eastern Daylight Time)","Sun Oct 04 2020 14:32:39 GMT-0400 (Eastern Daylight Time)","Mozilla/5.0 (Windows NT 6.1; Win64; x64) AppleWebKit/537.36 (KHTML, like Gecko) Chrome/85.0.4183.121 Safari/537.36",132,"[0.9, 0.5, 0.1]","[0.8, 0.4, 0.2]","[u'red', u'blue', u'black']","[u'left', u'middle', u'right']","[0.8, 0.4, 0.2]","[u'high', u'medium', u'low']","blue",50,"middle","medium","False","False",866,6300,NA
"A1HMO9XPRPUPWJ","Sun Oct 04 2020 14:25:23 GMT-0400 (Eastern Daylight Time)","Sun Oct 04 2020 14:32:39 GMT-0400 (Eastern Daylight Time)","Mozilla/5.0 (Windows NT 6.1; Win64; x64) AppleWebKit/537.36 (KHTML, like Gecko) Chrome/85.0.4183.121 Safari/537.36",133,"[0.9, 0.5, 0.1]","[0.8, 0.4, 0.2]","[u'red', u'blue', u'black']","[u'left', u'middle', u'right']","[0.8, 0.4, 0.2]","[u'high', u'medium', u'low']","black",51,"right","low","False","False",268,6250,NA
"A1HMO9XPRPUPWJ","Sun Oct 04 2020 14:25:23 GMT-0400 (Eastern Daylight Time)","Sun Oct 04 2020 14:32:39 GMT-0400 (Eastern Daylight Time)","Mozilla/5.0 (Windows NT 6.1; Win64; x64) AppleWebKit/537.36 (KHTML, like Gecko) Chrome/85.0.4183.121 Safari/537.36",134,"[0.9, 0.5, 0.1]","[0.8, 0.4, 0.2]","[u'red', u'blue', u'black']","[u'left', u'middle', u'right']","[0.8, 0.4, 0.2]","[u'high', u'medium', u'low']","red",49,"left","high","True","False",189,6350,NA
"A1HMO9XPRPUPWJ","Sun Oct 04 2020 14:25:23 GMT-0400 (Eastern Daylight Time)","Sun Oct 04 2020 14:32:39 GMT-0400 (Eastern Daylight Time)","Mozilla/5.0 (Windows NT 6.1; Win64; x64) AppleWebKit/537.36 (KHTML, like Gecko) Chrome/85.0.4183.121 Safari/537.36",135,"[0.9, 0.5, 0.1]","[0.8, 0.4, 0.2]","[u'red', u'blue', u'black']","[u'left', u'middle', u'right']","[0.8, 0.4, 0.2]","[u'high', u'medium', u'low']","red",49,"left","high","True","False",290,6450,NA
"A1HMO9XPRPUPWJ","Sun Oct 04 2020 14:25:23 GMT-0400 (Eastern Daylight Time)","Sun Oct 04 2020 14:32:39 GMT-0400 (Eastern Daylight Time)","Mozilla/5.0 (Windows NT 6.1; Win64; x64) AppleWebKit/537.36 (KHTML, like Gecko) Chrome/85.0.4183.121 Safari/537.36",136,"[0.9, 0.5, 0.1]","[0.8, 0.4, 0.2]","[u'red', u'blue', u'black']","[u'left', u'middle', u'right']","[0.8, 0.4, 0.2]","[u'high', u'medium', u'low']","red",49,"left","high","True","False",324,6550,NA
"A1HMO9XPRPUPWJ","Sun Oct 04 2020 14:25:23 GMT-0400 (Eastern Daylight Time)","Sun Oct 04 2020 14:32:39 GMT-0400 (Eastern Daylight Time)","Mozilla/5.0 (Windows NT 6.1; Win64; x64) AppleWebKit/537.36 (KHTML, like Gecko) Chrome/85.0.4183.121 Safari/537.36",137,"[0.9, 0.5, 0.1]","[0.8, 0.4, 0.2]","[u'red', u'blue', u'black']","[u'left', u'middle', u'right']","[0.8, 0.4, 0.2]","[u'high', u'medium', u'low']","red",49,"left","high","True","False",458,6650,NA
"A1HMO9XPRPUPWJ","Sun Oct 04 2020 14:25:23 GMT-0400 (Eastern Daylight Time)","Sun Oct 04 2020 14:32:39 GMT-0400 (Eastern Daylight Time)","Mozilla/5.0 (Windows NT 6.1; Win64; x64) AppleWebKit/537.36 (KHTML, like Gecko) Chrome/85.0.4183.121 Safari/537.36",138,"[0.9, 0.5, 0.1]","[0.8, 0.4, 0.2]","[u'red', u'blue', u'black']","[u'left', u'middle', u'right']","[0.8, 0.4, 0.2]","[u'high', u'medium', u'low']","red",49,"left","high","True","False",321,6750,NA
"A1HMO9XPRPUPWJ","Sun Oct 04 2020 14:25:23 GMT-0400 (Eastern Daylight Time)","Sun Oct 04 2020 14:32:39 GMT-0400 (Eastern Daylight Time)","Mozilla/5.0 (Windows NT 6.1; Win64; x64) AppleWebKit/537.36 (KHTML, like Gecko) Chrome/85.0.4183.121 Safari/537.36",139,"[0.9, 0.5, 0.1]","[0.8, 0.4, 0.2]","[u'red', u'blue', u'black']","[u'left', u'middle', u'right']","[0.8, 0.4, 0.2]","[u'high', u'medium', u'low']","red",49,"left","high","True","False",338,6850,NA
"A1HMO9XPRPUPWJ","Sun Oct 04 2020 14:25:23 GMT-0400 (Eastern Daylight Time)","Sun Oct 04 2020 14:32:39 GMT-0400 (Eastern Daylight Time)","Mozilla/5.0 (Windows NT 6.1; Win64; x64) AppleWebKit/537.36 (KHTML, like Gecko) Chrome/85.0.4183.121 Safari/537.36",140,"[0.9, 0.5, 0.1]","[0.8, 0.4, 0.2]","[u'red', u'blue', u'black']","[u'left', u'middle', u'right']","[0.8, 0.4, 0.2]","[u'high', u'medium', u'low']","red",49,"left","high","True","False",290,6950,NA
"A1HMO9XPRPUPWJ","Sun Oct 04 2020 14:25:23 GMT-0400 (Eastern Daylight Time)","Sun Oct 04 2020 14:32:39 GMT-0400 (Eastern Daylight Time)","Mozilla/5.0 (Windows NT 6.1; Win64; x64) AppleWebKit/537.36 (KHTML, like Gecko) Chrome/85.0.4183.121 Safari/537.36",141,"[0.9, 0.5, 0.1]","[0.8, 0.4, 0.2]","[u'red', u'blue', u'black']","[u'left', u'middle', u'right']","[0.8, 0.4, 0.2]","[u'high', u'medium', u'low']","red",49,"left","high","False","False",246,6900,NA
"A1HMO9XPRPUPWJ","Sun Oct 04 2020 14:25:23 GMT-0400 (Eastern Daylight Time)","Sun Oct 04 2020 14:32:39 GMT-0400 (Eastern Daylight Time)","Mozilla/5.0 (Windows NT 6.1; Win64; x64) AppleWebKit/537.36 (KHTML, like Gecko) Chrome/85.0.4183.121 Safari/537.36",142,"[0.9, 0.5, 0.1]","[0.8, 0.4, 0.2]","[u'red', u'blue', u'black']","[u'left', u'middle', u'right']","[0.8, 0.4, 0.2]","[u'high', u'medium', u'low']","blue",50,"middle","medium","True","False",269,7000,NA
"A1HMO9XPRPUPWJ","Sun Oct 04 2020 14:25:23 GMT-0400 (Eastern Daylight Time)","Sun Oct 04 2020 14:32:39 GMT-0400 (Eastern Daylight Time)","Mozilla/5.0 (Windows NT 6.1; Win64; x64) AppleWebKit/537.36 (KHTML, like Gecko) Chrome/85.0.4183.121 Safari/537.36",143,"[0.9, 0.5, 0.1]","[0.8, 0.4, 0.2]","[u'red', u'blue', u'black']","[u'left', u'middle', u'right']","[0.8, 0.4, 0.2]","[u'high', u'medium', u'low']","blue",50,"middle","medium","False","False",258,6950,NA
"A1HMO9XPRPUPWJ","Sun Oct 04 2020 14:25:23 GMT-0400 (Eastern Daylight Time)","Sun Oct 04 2020 14:32:39 GMT-0400 (Eastern Daylight Time)","Mozilla/5.0 (Windows NT 6.1; Win64; x64) AppleWebKit/537.36 (KHTML, like Gecko) Chrome/85.0.4183.121 Safari/537.36",144,"[0.9, 0.5, 0.1]","[0.8, 0.4, 0.2]","[u'red', u'blue', u'black']","[u'left', u'middle', u'right']","[0.8, 0.4, 0.2]","[u'high', u'medium', u'low']","blue",50,"middle","medium","False","False",434,6900,NA
"A1HMO9XPRPUPWJ","Sun Oct 04 2020 14:25:23 GMT-0400 (Eastern Daylight Time)","Sun Oct 04 2020 14:32:39 GMT-0400 (Eastern Daylight Time)","Mozilla/5.0 (Windows NT 6.1; Win64; x64) AppleWebKit/537.36 (KHTML, like Gecko) Chrome/85.0.4183.121 Safari/537.36",145,"[0.9, 0.5, 0.1]","[0.8, 0.4, 0.2]","[u'red', u'blue', u'black']","[u'left', u'middle', u'right']","[0.8, 0.4, 0.2]","[u'high', u'medium', u'low']","black",51,"right","low","True","False",276,7000,NA
"A1HMO9XPRPUPWJ","Sun Oct 04 2020 14:25:23 GMT-0400 (Eastern Daylight Time)","Sun Oct 04 2020 14:32:39 GMT-0400 (Eastern Daylight Time)","Mozilla/5.0 (Windows NT 6.1; Win64; x64) AppleWebKit/537.36 (KHTML, like Gecko) Chrome/85.0.4183.121 Safari/537.36",146,"[0.9, 0.5, 0.1]","[0.8, 0.4, 0.2]","[u'red', u'blue', u'black']","[u'left', u'middle', u'right']","[0.8, 0.4, 0.2]","[u'high', u'medium', u'low']","black",51,"right","low","False","False",299,6950,NA
"A1HMO9XPRPUPWJ","Sun Oct 04 2020 14:25:23 GMT-0400 (Eastern Daylight Time)","Sun Oct 04 2020 14:32:39 GMT-0400 (Eastern Daylight Time)","Mozilla/5.0 (Windows NT 6.1; Win64; x64) AppleWebKit/537.36 (KHTML, like Gecko) Chrome/85.0.4183.121 Safari/537.36",147,"[0.9, 0.5, 0.1]","[0.8, 0.4, 0.2]","[u'red', u'blue', u'black']","[u'left', u'middle', u'right']","[0.8, 0.4, 0.2]","[u'high', u'medium', u'low']","red",49,"left","high","True","False",259,7050,NA
"A1HMO9XPRPUPWJ","Sun Oct 04 2020 14:25:23 GMT-0400 (Eastern Daylight Time)","Sun Oct 04 2020 14:32:39 GMT-0400 (Eastern Daylight Time)","Mozilla/5.0 (Windows NT 6.1; Win64; x64) AppleWebKit/537.36 (KHTML, like Gecko) Chrome/85.0.4183.121 Safari/537.36",148,"[0.9, 0.5, 0.1]","[0.8, 0.4, 0.2]","[u'red', u'blue', u'black']","[u'left', u'middle', u'right']","[0.8, 0.4, 0.2]","[u'high', u'medium', u'low']","red",49,"left","high","True","False",322,7150,NA
"A1HMO9XPRPUPWJ","Sun Oct 04 2020 14:25:23 GMT-0400 (Eastern Daylight Time)","Sun Oct 04 2020 14:32:39 GMT-0400 (Eastern Daylight Time)","Mozilla/5.0 (Windows NT 6.1; Win64; x64) AppleWebKit/537.36 (KHTML, like Gecko) Chrome/85.0.4183.121 Safari/537.36",149,"[0.9, 0.5, 0.1]","[0.8, 0.4, 0.2]","[u'red', u'blue', u'black']","[u'left', u'middle', u'right']","[0.8, 0.4, 0.2]","[u'high', u'medium', u'low']","red",49,"left","high","False","False",268,7100,NA
"A1HMO9XPRPUPWJ","Sun Oct 04 2020 14:25:23 GMT-0400 (Eastern Daylight Time)","Sun Oct 04 2020 14:32:39 GMT-0400 (Eastern Daylight Time)","Mozilla/5.0 (Windows NT 6.1; Win64; x64) AppleWebKit/537.36 (KHTML, like Gecko) Chrome/85.0.4183.121 Safari/537.36",150,"[0.9, 0.5, 0.1]","[0.8, 0.4, 0.2]","[u'red', u'blue', u'black']","[u'left', u'middle', u'right']","[0.8, 0.4, 0.2]","[u'high', u'medium', u'low']","red",49,"left","high","True","False",202,7200,NA
"A1HMO9XPRPUPWJ","Sun Oct 04 2020 14:25:23 GMT-0400 (Eastern Daylight Time)","Sun Oct 04 2020 14:32:39 GMT-0400 (Eastern Daylight Time)","Mozilla/5.0 (Windows NT 6.1; Win64; x64) AppleWebKit/537.36 (KHTML, like Gecko) Chrome/85.0.4183.121 Safari/537.36",151,"[0.9, 0.5, 0.1]","[0.8, 0.4, 0.2]","[u'red', u'blue', u'black']","[u'left', u'middle', u'right']","[0.8, 0.4, 0.2]","[u'high', u'medium', u'low']","red",49,"left","high","True","False",255,7300,NA
"A1HMO9XPRPUPWJ","Sun Oct 04 2020 14:25:23 GMT-0400 (Eastern Daylight Time)","Sun Oct 04 2020 14:32:39 GMT-0400 (Eastern Daylight Time)","Mozilla/5.0 (Windows NT 6.1; Win64; x64) AppleWebKit/537.36 (KHTML, like Gecko) Chrome/85.0.4183.121 Safari/537.36",152,"[0.9, 0.5, 0.1]","[0.8, 0.4, 0.2]","[u'red', u'blue', u'black']","[u'left', u'middle', u'right']","[0.8, 0.4, 0.2]","[u'high', u'medium', u'low']","red",49,"left","high","True","False",163,7400,NA
"A1HMO9XPRPUPWJ","Sun Oct 04 2020 14:25:23 GMT-0400 (Eastern Daylight Time)","Sun Oct 04 2020 14:32:39 GMT-0400 (Eastern Daylight Time)","Mozilla/5.0 (Windows NT 6.1; Win64; x64) AppleWebKit/537.36 (KHTML, like Gecko) Chrome/85.0.4183.121 Safari/537.36",153,"[0.9, 0.5, 0.1]","[0.8, 0.4, 0.2]","[u'red', u'blue', u'black']","[u'left', u'middle', u'right']","[0.8, 0.4, 0.2]","[u'high', u'medium', u'low']","red",49,"left","high","True","False",138,7500,NA
"A1HMO9XPRPUPWJ","Sun Oct 04 2020 14:25:23 GMT-0400 (Eastern Daylight Time)","Sun Oct 04 2020 14:32:39 GMT-0400 (Eastern Daylight Time)","Mozilla/5.0 (Windows NT 6.1; Win64; x64) AppleWebKit/537.36 (KHTML, like Gecko) Chrome/85.0.4183.121 Safari/537.36",154,"[0.9, 0.5, 0.1]","[0.8, 0.4, 0.2]","[u'red', u'blue', u'black']","[u'left', u'middle', u'right']","[0.8, 0.4, 0.2]","[u'high', u'medium', u'low']","red",49,"left","high","True","False",291,7600,NA
"A1HMO9XPRPUPWJ","Sun Oct 04 2020 14:25:23 GMT-0400 (Eastern Daylight Time)","Sun Oct 04 2020 14:32:39 GMT-0400 (Eastern Daylight Time)","Mozilla/5.0 (Windows NT 6.1; Win64; x64) AppleWebKit/537.36 (KHTML, like Gecko) Chrome/85.0.4183.121 Safari/537.36",155,"[0.9, 0.5, 0.1]","[0.8, 0.4, 0.2]","[u'red', u'blue', u'black']","[u'left', u'middle', u'right']","[0.8, 0.4, 0.2]","[u'high', u'medium', u'low']","red",49,"left","high","True","True",249,7700,NA
"A1HMO9XPRPUPWJ","Sun Oct 04 2020 14:25:23 GMT-0400 (Eastern Daylight Time)","Sun Oct 04 2020 14:32:39 GMT-0400 (Eastern Daylight Time)","Mozilla/5.0 (Windows NT 6.1; Win64; x64) AppleWebKit/537.36 (KHTML, like Gecko) Chrome/85.0.4183.121 Safari/537.36",156,"[0.9, 0.5, 0.1]","[0.8, 0.4, 0.2]","[u'red', u'blue', u'black']","[u'left', u'middle', u'right']","[0.8, 0.4, 0.2]","[u'medium', u'high', u'low']","red",49,"left","medium","False","False",330,7650,NA
"A1HMO9XPRPUPWJ","Sun Oct 04 2020 14:25:23 GMT-0400 (Eastern Daylight Time)","Sun Oct 04 2020 14:32:39 GMT-0400 (Eastern Daylight Time)","Mozilla/5.0 (Windows NT 6.1; Win64; x64) AppleWebKit/537.36 (KHTML, like Gecko) Chrome/85.0.4183.121 Safari/537.36",157,"[0.9, 0.5, 0.1]","[0.8, 0.4, 0.2]","[u'red', u'blue', u'black']","[u'left', u'middle', u'right']","[0.8, 0.4, 0.2]","[u'medium', u'high', u'low']","blue",50,"middle","high","True","False",314,7750,NA
"A1HMO9XPRPUPWJ","Sun Oct 04 2020 14:25:23 GMT-0400 (Eastern Daylight Time)","Sun Oct 04 2020 14:32:39 GMT-0400 (Eastern Daylight Time)","Mozilla/5.0 (Windows NT 6.1; Win64; x64) AppleWebKit/537.36 (KHTML, like Gecko) Chrome/85.0.4183.121 Safari/537.36",158,"[0.9, 0.5, 0.1]","[0.8, 0.4, 0.2]","[u'red', u'blue', u'black']","[u'left', u'middle', u'right']","[0.8, 0.4, 0.2]","[u'medium', u'high', u'low']","blue",50,"middle","high","True","False",289,7850,NA
"A1HMO9XPRPUPWJ","Sun Oct 04 2020 14:25:23 GMT-0400 (Eastern Daylight Time)","Sun Oct 04 2020 14:32:39 GMT-0400 (Eastern Daylight Time)","Mozilla/5.0 (Windows NT 6.1; Win64; x64) AppleWebKit/537.36 (KHTML, like Gecko) Chrome/85.0.4183.121 Safari/537.36",159,"[0.9, 0.5, 0.1]","[0.8, 0.4, 0.2]","[u'red', u'blue', u'black']","[u'left', u'middle', u'right']","[0.8, 0.4, 0.2]","[u'medium', u'high', u'low']","blue",50,"middle","high","True","False",307,7950,NA
"A1HMO9XPRPUPWJ","Sun Oct 04 2020 14:25:23 GMT-0400 (Eastern Daylight Time)","Sun Oct 04 2020 14:32:39 GMT-0400 (Eastern Daylight Time)","Mozilla/5.0 (Windows NT 6.1; Win64; x64) AppleWebKit/537.36 (KHTML, like Gecko) Chrome/85.0.4183.121 Safari/537.36",160,"[0.9, 0.5, 0.1]","[0.8, 0.4, 0.2]","[u'red', u'blue', u'black']","[u'left', u'middle', u'right']","[0.8, 0.4, 0.2]","[u'medium', u'high', u'low']","blue",50,"middle","high","True","False",317,8050,NA
