"src_subject_id","start_time","end_time","browser","index","first_half_probabilities","second_half_probabilities","deck_color","deck_position","deck_probabilities","deck_contingencies","response_color","key_press","response_position","response_probability","reward_type","trial_type","rt","reward_tally","exclusion_reason"
"A3OGOTSOMQTDMN","Sun Oct 04 2020 19:05:06 GMT-0700 (Pacific Daylight Time)","Sun Oct 04 2020 19:14:24 GMT-0700 (Pacific Daylight Time)","Mozilla/5.0 (Windows NT 6.3; Win64; x64) AppleWebKit/537.36 (KHTML, like Gecko) Chrome/85.0.4183.102 Safari/537.36",1,"[0.9, 0.5, 0.1]","[0.8, 0.4, 0.2]","[u'blue', u'black', u'red']","[u'left', u'middle', u'right']","[0.9, 0.5, 0.1]","[u'high', u'medium', u'low']","black",50,"middle","medium","True","False",1398,100,NA
"A3OGOTSOMQTDMN","Sun Oct 04 2020 19:05:06 GMT-0700 (Pacific Daylight Time)","Sun Oct 04 2020 19:14:24 GMT-0700 (Pacific Daylight Time)","Mozilla/5.0 (Windows NT 6.3; Win64; x64) AppleWebKit/537.36 (KHTML, like Gecko) Chrome/85.0.4183.102 Safari/537.36",2,"[0.9, 0.5, 0.1]","[0.8, 0.4, 0.2]","[u'blue', u'black', u'red']","[u'left', u'middle', u'right']","[0.9, 0.5, 0.1]","[u'high', u'medium', u'low']","black",50,"middle","medium","False","False",1065,50,NA
"A3OGOTSOMQTDMN","Sun Oct 04 2020 19:05:06 GMT-0700 (Pacific Daylight Time)","Sun Oct 04 2020 19:14:24 GMT-0700 (Pacific Daylight Time)","Mozilla/5.0 (Windows NT 6.3; Win64; x64) AppleWebKit/537.36 (KHTML, like Gecko) Chrome/85.0.4183.102 Safari/537.36",3,"[0.9, 0.5, 0.1]","[0.8, 0.4, 0.2]","[u'blue', u'black', u'red']","[u'left', u'middle', u'right']","[0.9, 0.5, 0.1]","[u'high', u'medium', u'low']","black",50,"middle","medium","True","False",800,150,NA
"A3OGOTSOMQTDMN","Sun Oct 04 2020 19:05:06 GMT-0700 (Pacific Daylight Time)","Sun Oct 04 2020 19:14:24 GMT-0700 (Pacific Daylight Time)","Mozilla/5.0 (Windows NT 6.3; Win64; x64) AppleWebKit/537.36 (KHTML, like Gecko) Chrome/85.0.4183.102 Safari/537.36",4,"[0.9, 0.5, 0.1]","[0.8, 0.4, 0.2]","[u'blue', u'black', u'red']","[u'left', u'middle', u'right']","[0.9, 0.5, 0.1]","[u'high', u'medium', u'low']","blue",49,"left","high","True","False",1259,250,NA
"A3OGOTSOMQTDMN","Sun Oct 04 2020 19:05:06 GMT-0700 (Pacific Daylight Time)","Sun Oct 04 2020 19:14:24 GMT-0700 (Pacific Daylight Time)","Mozilla/5.0 (Windows NT 6.3; Win64; x64) AppleWebKit/537.36 (KHTML, like Gecko) Chrome/85.0.4183.102 Safari/537.36",5,"[0.9, 0.5, 0.1]","[0.8, 0.4, 0.2]","[u'blue', u'black', u'red']","[u'left', u'middle', u'right']","[0.9, 0.5, 0.1]","[u'high', u'medium', u'low']","red",51,"right","low","False","False",1087,200,NA
"A3OGOTSOMQTDMN","Sun Oct 04 2020 19:05:06 GMT-0700 (Pacific Daylight Time)","Sun Oct 04 2020 19:14:24 GMT-0700 (Pacific Daylight Time)","Mozilla/5.0 (Windows NT 6.3; Win64; x64) AppleWebKit/537.36 (KHTML, like Gecko) Chrome/85.0.4183.102 Safari/537.36",6,"[0.9, 0.5, 0.1]","[0.8, 0.4, 0.2]","[u'blue', u'black', u'red']","[u'left', u'middle', u'right']","[0.9, 0.5, 0.1]","[u'high', u'medium', u'low']","blue",49,"left","high","True","False",2007,300,NA
"A3OGOTSOMQTDMN","Sun Oct 04 2020 19:05:06 GMT-0700 (Pacific Daylight Time)","Sun Oct 04 2020 19:14:24 GMT-0700 (Pacific Daylight Time)","Mozilla/5.0 (Windows NT 6.3; Win64; x64) AppleWebKit/537.36 (KHTML, like Gecko) Chrome/85.0.4183.102 Safari/537.36",7,"[0.9, 0.5, 0.1]","[0.8, 0.4, 0.2]","[u'blue', u'black', u'red']","[u'left', u'middle', u'right']","[0.9, 0.5, 0.1]","[u'high', u'medium', u'low']","black",50,"middle","medium","False","False",941,250,NA
"A3OGOTSOMQTDMN","Sun Oct 04 2020 19:05:06 GMT-0700 (Pacific Daylight Time)","Sun Oct 04 2020 19:14:24 GMT-0700 (Pacific Daylight Time)","Mozilla/5.0 (Windows NT 6.3; Win64; x64) AppleWebKit/537.36 (KHTML, like Gecko) Chrome/85.0.4183.102 Safari/537.36",8,"[0.9, 0.5, 0.1]","[0.8, 0.4, 0.2]","[u'blue', u'black', u'red']","[u'left', u'middle', u'right']","[0.9, 0.5, 0.1]","[u'high', u'medium', u'low']","blue",49,"left","high","True","False",2528,350,NA
"A3OGOTSOMQTDMN","Sun Oct 04 2020 19:05:06 GMT-0700 (Pacific Daylight Time)","Sun Oct 04 2020 19:14:24 GMT-0700 (Pacific Daylight Time)","Mozilla/5.0 (Windows NT 6.3; Win64; x64) AppleWebKit/537.36 (KHTML, like Gecko) Chrome/85.0.4183.102 Safari/537.36",9,"[0.9, 0.5, 0.1]","[0.8, 0.4, 0.2]","[u'blue', u'black', u'red']","[u'left', u'middle', u'right']","[0.9, 0.5, 0.1]","[u'high', u'medium', u'low']","black",50,"middle","medium","False","False",858,300,NA
"A3OGOTSOMQTDMN","Sun Oct 04 2020 19:05:06 GMT-0700 (Pacific Daylight Time)","Sun Oct 04 2020 19:14:24 GMT-0700 (Pacific Daylight Time)","Mozilla/5.0 (Windows NT 6.3; Win64; x64) AppleWebKit/537.36 (KHTML, like Gecko) Chrome/85.0.4183.102 Safari/537.36",10,"[0.9, 0.5, 0.1]","[0.8, 0.4, 0.2]","[u'blue', u'black', u'red']","[u'left', u'middle', u'right']","[0.9, 0.5, 0.1]","[u'high', u'medium', u'low']","red",51,"right","low","False","False",919,250,NA
"A3OGOTSOMQTDMN","Sun Oct 04 2020 19:05:06 GMT-0700 (Pacific Daylight Time)","Sun Oct 04 2020 19:14:24 GMT-0700 (Pacific Daylight Time)","Mozilla/5.0 (Windows NT 6.3; Win64; x64) AppleWebKit/537.36 (KHTML, like Gecko) Chrome/85.0.4183.102 Safari/537.36",11,"[0.9, 0.5, 0.1]","[0.8, 0.4, 0.2]","[u'blue', u'black', u'red']","[u'left', u'middle', u'right']","[0.9, 0.5, 0.1]","[u'high', u'medium', u'low']","red",51,"right","low","False","False",1370,200,NA
"A3OGOTSOMQTDMN","Sun Oct 04 2020 19:05:06 GMT-0700 (Pacific Daylight Time)","Sun Oct 04 2020 19:14:24 GMT-0700 (Pacific Daylight Time)","Mozilla/5.0 (Windows NT 6.3; Win64; x64) AppleWebKit/537.36 (KHTML, like Gecko) Chrome/85.0.4183.102 Safari/537.36",12,"[0.9, 0.5, 0.1]","[0.8, 0.4, 0.2]","[u'blue', u'black', u'red']","[u'left', u'middle', u'right']","[0.9, 0.5, 0.1]","[u'high', u'medium', u'low']","black",50,"middle","medium","True","False",457,300,NA
"A3OGOTSOMQTDMN","Sun Oct 04 2020 19:05:06 GMT-0700 (Pacific Daylight Time)","Sun Oct 04 2020 19:14:24 GMT-0700 (Pacific Daylight Time)","Mozilla/5.0 (Windows NT 6.3; Win64; x64) AppleWebKit/537.36 (KHTML, like Gecko) Chrome/85.0.4183.102 Safari/537.36",13,"[0.9, 0.5, 0.1]","[0.8, 0.4, 0.2]","[u'blue', u'black', u'red']","[u'left', u'middle', u'right']","[0.9, 0.5, 0.1]","[u'high', u'medium', u'low']","blue",49,"left","high","True","False",867,400,NA
"A3OGOTSOMQTDMN","Sun Oct 04 2020 19:05:06 GMT-0700 (Pacific Daylight Time)","Sun Oct 04 2020 19:14:24 GMT-0700 (Pacific Daylight Time)","Mozilla/5.0 (Windows NT 6.3; Win64; x64) AppleWebKit/537.36 (KHTML, like Gecko) Chrome/85.0.4183.102 Safari/537.36",14,"[0.9, 0.5, 0.1]","[0.8, 0.4, 0.2]","[u'blue', u'black', u'red']","[u'left', u'middle', u'right']","[0.9, 0.5, 0.1]","[u'high', u'medium', u'low']","black",50,"middle","medium","True","False",920,500,NA
"A3OGOTSOMQTDMN","Sun Oct 04 2020 19:05:06 GMT-0700 (Pacific Daylight Time)","Sun Oct 04 2020 19:14:24 GMT-0700 (Pacific Daylight Time)","Mozilla/5.0 (Windows NT 6.3; Win64; x64) AppleWebKit/537.36 (KHTML, like Gecko) Chrome/85.0.4183.102 Safari/537.36",15,"[0.9, 0.5, 0.1]","[0.8, 0.4, 0.2]","[u'blue', u'black', u'red']","[u'left', u'middle', u'right']","[0.9, 0.5, 0.1]","[u'high', u'medium', u'low']","blue",49,"left","high","True","False",779,600,NA
"A3OGOTSOMQTDMN","Sun Oct 04 2020 19:05:06 GMT-0700 (Pacific Daylight Time)","Sun Oct 04 2020 19:14:24 GMT-0700 (Pacific Daylight Time)","Mozilla/5.0 (Windows NT 6.3; Win64; x64) AppleWebKit/537.36 (KHTML, like Gecko) Chrome/85.0.4183.102 Safari/537.36",16,"[0.9, 0.5, 0.1]","[0.8, 0.4, 0.2]","[u'blue', u'black', u'red']","[u'left', u'middle', u'right']","[0.9, 0.5, 0.1]","[u'high', u'medium', u'low']","black",50,"middle","medium","False","False",579,550,NA
"A3OGOTSOMQTDMN","Sun Oct 04 2020 19:05:06 GMT-0700 (Pacific Daylight Time)","Sun Oct 04 2020 19:14:24 GMT-0700 (Pacific Daylight Time)","Mozilla/5.0 (Windows NT 6.3; Win64; x64) AppleWebKit/537.36 (KHTML, like Gecko) Chrome/85.0.4183.102 Safari/537.36",17,"[0.9, 0.5, 0.1]","[0.8, 0.4, 0.2]","[u'blue', u'black', u'red']","[u'left', u'middle', u'right']","[0.9, 0.5, 0.1]","[u'high', u'medium', u'low']","red",51,"right","low","False","False",919,500,NA
"A3OGOTSOMQTDMN","Sun Oct 04 2020 19:05:06 GMT-0700 (Pacific Daylight Time)","Sun Oct 04 2020 19:14:24 GMT-0700 (Pacific Daylight Time)","Mozilla/5.0 (Windows NT 6.3; Win64; x64) AppleWebKit/537.36 (KHTML, like Gecko) Chrome/85.0.4183.102 Safari/537.36",18,"[0.9, 0.5, 0.1]","[0.8, 0.4, 0.2]","[u'blue', u'black', u'red']","[u'left', u'middle', u'right']","[0.9, 0.5, 0.1]","[u'high', u'medium', u'low']","black",50,"middle","medium","True","False",438,600,NA
"A3OGOTSOMQTDMN","Sun Oct 04 2020 19:05:06 GMT-0700 (Pacific Daylight Time)","Sun Oct 04 2020 19:14:24 GMT-0700 (Pacific Daylight Time)","Mozilla/5.0 (Windows NT 6.3; Win64; x64) AppleWebKit/537.36 (KHTML, like Gecko) Chrome/85.0.4183.102 Safari/537.36",19,"[0.9, 0.5, 0.1]","[0.8, 0.4, 0.2]","[u'blue', u'black', u'red']","[u'left', u'middle', u'right']","[0.9, 0.5, 0.1]","[u'high', u'medium', u'low']","black",50,"middle","medium","True","False",737,700,NA
"A3OGOTSOMQTDMN","Sun Oct 04 2020 19:05:06 GMT-0700 (Pacific Daylight Time)","Sun Oct 04 2020 19:14:24 GMT-0700 (Pacific Daylight Time)","Mozilla/5.0 (Windows NT 6.3; Win64; x64) AppleWebKit/537.36 (KHTML, like Gecko) Chrome/85.0.4183.102 Safari/537.36",20,"[0.9, 0.5, 0.1]","[0.8, 0.4, 0.2]","[u'blue', u'black', u'red']","[u'left', u'middle', u'right']","[0.9, 0.5, 0.1]","[u'high', u'medium', u'low']","blue",49,"left","high","True","False",868,800,NA
"A3OGOTSOMQTDMN","Sun Oct 04 2020 19:05:06 GMT-0700 (Pacific Daylight Time)","Sun Oct 04 2020 19:14:24 GMT-0700 (Pacific Daylight Time)","Mozilla/5.0 (Windows NT 6.3; Win64; x64) AppleWebKit/537.36 (KHTML, like Gecko) Chrome/85.0.4183.102 Safari/537.36",21,"[0.9, 0.5, 0.1]","[0.8, 0.4, 0.2]","[u'blue', u'black', u'red']","[u'left', u'middle', u'right']","[0.9, 0.5, 0.1]","[u'high', u'medium', u'low']","blue",49,"left","high","True","False",659,900,NA
"A3OGOTSOMQTDMN","Sun Oct 04 2020 19:05:06 GMT-0700 (Pacific Daylight Time)","Sun Oct 04 2020 19:14:24 GMT-0700 (Pacific Daylight Time)","Mozilla/5.0 (Windows NT 6.3; Win64; x64) AppleWebKit/537.36 (KHTML, like Gecko) Chrome/85.0.4183.102 Safari/537.36",22,"[0.9, 0.5, 0.1]","[0.8, 0.4, 0.2]","[u'blue', u'black', u'red']","[u'left', u'middle', u'right']","[0.9, 0.5, 0.1]","[u'high', u'medium', u'low']","blue",49,"left","high","True","False",698,1000,NA
"A3OGOTSOMQTDMN","Sun Oct 04 2020 19:05:06 GMT-0700 (Pacific Daylight Time)","Sun Oct 04 2020 19:14:24 GMT-0700 (Pacific Daylight Time)","Mozilla/5.0 (Windows NT 6.3; Win64; x64) AppleWebKit/537.36 (KHTML, like Gecko) Chrome/85.0.4183.102 Safari/537.36",23,"[0.9, 0.5, 0.1]","[0.8, 0.4, 0.2]","[u'blue', u'black', u'red']","[u'left', u'middle', u'right']","[0.9, 0.5, 0.1]","[u'high', u'medium', u'low']","blue",49,"left","high","True","False",798,1100,NA
"A3OGOTSOMQTDMN","Sun Oct 04 2020 19:05:06 GMT-0700 (Pacific Daylight Time)","Sun Oct 04 2020 19:14:24 GMT-0700 (Pacific Daylight Time)","Mozilla/5.0 (Windows NT 6.3; Win64; x64) AppleWebKit/537.36 (KHTML, like Gecko) Chrome/85.0.4183.102 Safari/537.36",24,"[0.9, 0.5, 0.1]","[0.8, 0.4, 0.2]","[u'blue', u'black', u'red']","[u'left', u'middle', u'right']","[0.9, 0.5, 0.1]","[u'high', u'medium', u'low']","black",50,"middle","medium","False","False",1055,1050,NA
"A3OGOTSOMQTDMN","Sun Oct 04 2020 19:05:06 GMT-0700 (Pacific Daylight Time)","Sun Oct 04 2020 19:14:24 GMT-0700 (Pacific Daylight Time)","Mozilla/5.0 (Windows NT 6.3; Win64; x64) AppleWebKit/537.36 (KHTML, like Gecko) Chrome/85.0.4183.102 Safari/537.36",25,"[0.9, 0.5, 0.1]","[0.8, 0.4, 0.2]","[u'blue', u'black', u'red']","[u'left', u'middle', u'right']","[0.9, 0.5, 0.1]","[u'high', u'medium', u'low']","blue",49,"left","high","True","False",696,1150,NA
"A3OGOTSOMQTDMN","Sun Oct 04 2020 19:05:06 GMT-0700 (Pacific Daylight Time)","Sun Oct 04 2020 19:14:24 GMT-0700 (Pacific Daylight Time)","Mozilla/5.0 (Windows NT 6.3; Win64; x64) AppleWebKit/537.36 (KHTML, like Gecko) Chrome/85.0.4183.102 Safari/537.36",26,"[0.9, 0.5, 0.1]","[0.8, 0.4, 0.2]","[u'blue', u'black', u'red']","[u'left', u'middle', u'right']","[0.9, 0.5, 0.1]","[u'high', u'medium', u'low']","blue",49,"left","high","True","False",675,1250,NA
"A3OGOTSOMQTDMN","Sun Oct 04 2020 19:05:06 GMT-0700 (Pacific Daylight Time)","Sun Oct 04 2020 19:14:24 GMT-0700 (Pacific Daylight Time)","Mozilla/5.0 (Windows NT 6.3; Win64; x64) AppleWebKit/537.36 (KHTML, like Gecko) Chrome/85.0.4183.102 Safari/537.36",27,"[0.9, 0.5, 0.1]","[0.8, 0.4, 0.2]","[u'blue', u'black', u'red']","[u'left', u'middle', u'right']","[0.9, 0.5, 0.1]","[u'high', u'medium', u'low']","blue",49,"left","high","True","False",751,1350,NA
"A3OGOTSOMQTDMN","Sun Oct 04 2020 19:05:06 GMT-0700 (Pacific Daylight Time)","Sun Oct 04 2020 19:14:24 GMT-0700 (Pacific Daylight Time)","Mozilla/5.0 (Windows NT 6.3; Win64; x64) AppleWebKit/537.36 (KHTML, like Gecko) Chrome/85.0.4183.102 Safari/537.36",28,"[0.9, 0.5, 0.1]","[0.8, 0.4, 0.2]","[u'blue', u'black', u'red']","[u'left', u'middle', u'right']","[0.9, 0.5, 0.1]","[u'high', u'medium', u'low']","blue",49,"left","high","True","False",486,1450,NA
"A3OGOTSOMQTDMN","Sun Oct 04 2020 19:05:06 GMT-0700 (Pacific Daylight Time)","Sun Oct 04 2020 19:14:24 GMT-0700 (Pacific Daylight Time)","Mozilla/5.0 (Windows NT 6.3; Win64; x64) AppleWebKit/537.36 (KHTML, like Gecko) Chrome/85.0.4183.102 Safari/537.36",29,"[0.9, 0.5, 0.1]","[0.8, 0.4, 0.2]","[u'blue', u'black', u'red']","[u'left', u'middle', u'right']","[0.9, 0.5, 0.1]","[u'high', u'medium', u'low']","blue",49,"left","high","True","True",981,1550,NA
"A3OGOTSOMQTDMN","Sun Oct 04 2020 19:05:06 GMT-0700 (Pacific Daylight Time)","Sun Oct 04 2020 19:14:24 GMT-0700 (Pacific Daylight Time)","Mozilla/5.0 (Windows NT 6.3; Win64; x64) AppleWebKit/537.36 (KHTML, like Gecko) Chrome/85.0.4183.102 Safari/537.36",30,"[0.9, 0.5, 0.1]","[0.8, 0.4, 0.2]","[u'blue', u'black', u'red']","[u'left', u'middle', u'right']","[0.9, 0.5, 0.1]","[u'medium', u'low', u'high']","blue",49,"left","medium","False","False",749,1500,NA
"A3OGOTSOMQTDMN","Sun Oct 04 2020 19:05:06 GMT-0700 (Pacific Daylight Time)","Sun Oct 04 2020 19:14:24 GMT-0700 (Pacific Daylight Time)","Mozilla/5.0 (Windows NT 6.3; Win64; x64) AppleWebKit/537.36 (KHTML, like Gecko) Chrome/85.0.4183.102 Safari/537.36",31,"[0.9, 0.5, 0.1]","[0.8, 0.4, 0.2]","[u'blue', u'black', u'red']","[u'left', u'middle', u'right']","[0.9, 0.5, 0.1]","[u'medium', u'low', u'high']","black",50,"middle","low","False","False",1687,1450,NA
"A3OGOTSOMQTDMN","Sun Oct 04 2020 19:05:06 GMT-0700 (Pacific Daylight Time)","Sun Oct 04 2020 19:14:24 GMT-0700 (Pacific Daylight Time)","Mozilla/5.0 (Windows NT 6.3; Win64; x64) AppleWebKit/537.36 (KHTML, like Gecko) Chrome/85.0.4183.102 Safari/537.36",32,"[0.9, 0.5, 0.1]","[0.8, 0.4, 0.2]","[u'blue', u'black', u'red']","[u'left', u'middle', u'right']","[0.9, 0.5, 0.1]","[u'medium', u'low', u'high']","red",51,"right","high","True","False",680,1550,NA
"A3OGOTSOMQTDMN","Sun Oct 04 2020 19:05:06 GMT-0700 (Pacific Daylight Time)","Sun Oct 04 2020 19:14:24 GMT-0700 (Pacific Daylight Time)","Mozilla/5.0 (Windows NT 6.3; Win64; x64) AppleWebKit/537.36 (KHTML, like Gecko) Chrome/85.0.4183.102 Safari/537.36",33,"[0.9, 0.5, 0.1]","[0.8, 0.4, 0.2]","[u'blue', u'black', u'red']","[u'left', u'middle', u'right']","[0.9, 0.5, 0.1]","[u'medium', u'low', u'high']","red",51,"right","high","True","False",758,1650,NA
"A3OGOTSOMQTDMN","Sun Oct 04 2020 19:05:06 GMT-0700 (Pacific Daylight Time)","Sun Oct 04 2020 19:14:24 GMT-0700 (Pacific Daylight Time)","Mozilla/5.0 (Windows NT 6.3; Win64; x64) AppleWebKit/537.36 (KHTML, like Gecko) Chrome/85.0.4183.102 Safari/537.36",34,"[0.9, 0.5, 0.1]","[0.8, 0.4, 0.2]","[u'blue', u'black', u'red']","[u'left', u'middle', u'right']","[0.9, 0.5, 0.1]","[u'medium', u'low', u'high']","red",51,"right","high","True","False",589,1750,NA
"A3OGOTSOMQTDMN","Sun Oct 04 2020 19:05:06 GMT-0700 (Pacific Daylight Time)","Sun Oct 04 2020 19:14:24 GMT-0700 (Pacific Daylight Time)","Mozilla/5.0 (Windows NT 6.3; Win64; x64) AppleWebKit/537.36 (KHTML, like Gecko) Chrome/85.0.4183.102 Safari/537.36",35,"[0.9, 0.5, 0.1]","[0.8, 0.4, 0.2]","[u'blue', u'black', u'red']","[u'left', u'middle', u'right']","[0.9, 0.5, 0.1]","[u'medium', u'low', u'high']","red",51,"right","high","True","False",608,1850,NA
"A3OGOTSOMQTDMN","Sun Oct 04 2020 19:05:06 GMT-0700 (Pacific Daylight Time)","Sun Oct 04 2020 19:14:24 GMT-0700 (Pacific Daylight Time)","Mozilla/5.0 (Windows NT 6.3; Win64; x64) AppleWebKit/537.36 (KHTML, like Gecko) Chrome/85.0.4183.102 Safari/537.36",36,"[0.9, 0.5, 0.1]","[0.8, 0.4, 0.2]","[u'blue', u'black', u'red']","[u'left', u'middle', u'right']","[0.9, 0.5, 0.1]","[u'medium', u'low', u'high']","red",51,"right","high","True","False",903,1950,NA
"A3OGOTSOMQTDMN","Sun Oct 04 2020 19:05:06 GMT-0700 (Pacific Daylight Time)","Sun Oct 04 2020 19:14:24 GMT-0700 (Pacific Daylight Time)","Mozilla/5.0 (Windows NT 6.3; Win64; x64) AppleWebKit/537.36 (KHTML, like Gecko) Chrome/85.0.4183.102 Safari/537.36",37,"[0.9, 0.5, 0.1]","[0.8, 0.4, 0.2]","[u'blue', u'black', u'red']","[u'left', u'middle', u'right']","[0.9, 0.5, 0.1]","[u'medium', u'low', u'high']","red",51,"right","high","True","False",656,2050,NA
"A3OGOTSOMQTDMN","Sun Oct 04 2020 19:05:06 GMT-0700 (Pacific Daylight Time)","Sun Oct 04 2020 19:14:24 GMT-0700 (Pacific Daylight Time)","Mozilla/5.0 (Windows NT 6.3; Win64; x64) AppleWebKit/537.36 (KHTML, like Gecko) Chrome/85.0.4183.102 Safari/537.36",38,"[0.9, 0.5, 0.1]","[0.8, 0.4, 0.2]","[u'blue', u'black', u'red']","[u'left', u'middle', u'right']","[0.9, 0.5, 0.1]","[u'medium', u'low', u'high']","red",51,"right","high","True","False",227,2150,NA
"A3OGOTSOMQTDMN","Sun Oct 04 2020 19:05:06 GMT-0700 (Pacific Daylight Time)","Sun Oct 04 2020 19:14:24 GMT-0700 (Pacific Daylight Time)","Mozilla/5.0 (Windows NT 6.3; Win64; x64) AppleWebKit/537.36 (KHTML, like Gecko) Chrome/85.0.4183.102 Safari/537.36",39,"[0.9, 0.5, 0.1]","[0.8, 0.4, 0.2]","[u'blue', u'black', u'red']","[u'left', u'middle', u'right']","[0.9, 0.5, 0.1]","[u'medium', u'low', u'high']","red",51,"right","high","True","False",288,2250,NA
"A3OGOTSOMQTDMN","Sun Oct 04 2020 19:05:06 GMT-0700 (Pacific Daylight Time)","Sun Oct 04 2020 19:14:24 GMT-0700 (Pacific Daylight Time)","Mozilla/5.0 (Windows NT 6.3; Win64; x64) AppleWebKit/537.36 (KHTML, like Gecko) Chrome/85.0.4183.102 Safari/537.36",40,"[0.9, 0.5, 0.1]","[0.8, 0.4, 0.2]","[u'blue', u'black', u'red']","[u'left', u'middle', u'right']","[0.9, 0.5, 0.1]","[u'medium', u'low', u'high']","red",51,"right","high","True","True",379,2350,NA
"A3OGOTSOMQTDMN","Sun Oct 04 2020 19:05:06 GMT-0700 (Pacific Daylight Time)","Sun Oct 04 2020 19:14:24 GMT-0700 (Pacific Daylight Time)","Mozilla/5.0 (Windows NT 6.3; Win64; x64) AppleWebKit/537.36 (KHTML, like Gecko) Chrome/85.0.4183.102 Safari/537.36",41,"[0.9, 0.5, 0.1]","[0.8, 0.4, 0.2]","[u'blue', u'black', u'red']","[u'left', u'middle', u'right']","[0.9, 0.5, 0.1]","[u'low', u'high', u'medium']","red",51,"right","medium","False","False",1297,2300,NA
"A3OGOTSOMQTDMN","Sun Oct 04 2020 19:05:06 GMT-0700 (Pacific Daylight Time)","Sun Oct 04 2020 19:14:24 GMT-0700 (Pacific Daylight Time)","Mozilla/5.0 (Windows NT 6.3; Win64; x64) AppleWebKit/537.36 (KHTML, like Gecko) Chrome/85.0.4183.102 Safari/537.36",42,"[0.9, 0.5, 0.1]","[0.8, 0.4, 0.2]","[u'blue', u'black', u'red']","[u'left', u'middle', u'right']","[0.9, 0.5, 0.1]","[u'low', u'high', u'medium']","blue",49,"left","low","False","False",497,2250,NA
"A3OGOTSOMQTDMN","Sun Oct 04 2020 19:05:06 GMT-0700 (Pacific Daylight Time)","Sun Oct 04 2020 19:14:24 GMT-0700 (Pacific Daylight Time)","Mozilla/5.0 (Windows NT 6.3; Win64; x64) AppleWebKit/537.36 (KHTML, like Gecko) Chrome/85.0.4183.102 Safari/537.36",43,"[0.9, 0.5, 0.1]","[0.8, 0.4, 0.2]","[u'blue', u'black', u'red']","[u'left', u'middle', u'right']","[0.9, 0.5, 0.1]","[u'low', u'high', u'medium']","black",50,"middle","high","True","False",193,2350,NA
"A3OGOTSOMQTDMN","Sun Oct 04 2020 19:05:06 GMT-0700 (Pacific Daylight Time)","Sun Oct 04 2020 19:14:24 GMT-0700 (Pacific Daylight Time)","Mozilla/5.0 (Windows NT 6.3; Win64; x64) AppleWebKit/537.36 (KHTML, like Gecko) Chrome/85.0.4183.102 Safari/537.36",44,"[0.9, 0.5, 0.1]","[0.8, 0.4, 0.2]","[u'blue', u'black', u'red']","[u'left', u'middle', u'right']","[0.9, 0.5, 0.1]","[u'low', u'high', u'medium']","black",50,"middle","high","True","False",607,2450,NA
"A3OGOTSOMQTDMN","Sun Oct 04 2020 19:05:06 GMT-0700 (Pacific Daylight Time)","Sun Oct 04 2020 19:14:24 GMT-0700 (Pacific Daylight Time)","Mozilla/5.0 (Windows NT 6.3; Win64; x64) AppleWebKit/537.36 (KHTML, like Gecko) Chrome/85.0.4183.102 Safari/537.36",45,"[0.9, 0.5, 0.1]","[0.8, 0.4, 0.2]","[u'blue', u'black', u'red']","[u'left', u'middle', u'right']","[0.9, 0.5, 0.1]","[u'low', u'high', u'medium']","black",50,"middle","high","True","False",257,2550,NA
"A3OGOTSOMQTDMN","Sun Oct 04 2020 19:05:06 GMT-0700 (Pacific Daylight Time)","Sun Oct 04 2020 19:14:24 GMT-0700 (Pacific Daylight Time)","Mozilla/5.0 (Windows NT 6.3; Win64; x64) AppleWebKit/537.36 (KHTML, like Gecko) Chrome/85.0.4183.102 Safari/537.36",46,"[0.9, 0.5, 0.1]","[0.8, 0.4, 0.2]","[u'blue', u'black', u'red']","[u'left', u'middle', u'right']","[0.9, 0.5, 0.1]","[u'low', u'high', u'medium']","black",50,"middle","high","True","False",421,2650,NA
"A3OGOTSOMQTDMN","Sun Oct 04 2020 19:05:06 GMT-0700 (Pacific Daylight Time)","Sun Oct 04 2020 19:14:24 GMT-0700 (Pacific Daylight Time)","Mozilla/5.0 (Windows NT 6.3; Win64; x64) AppleWebKit/537.36 (KHTML, like Gecko) Chrome/85.0.4183.102 Safari/537.36",47,"[0.9, 0.5, 0.1]","[0.8, 0.4, 0.2]","[u'blue', u'black', u'red']","[u'left', u'middle', u'right']","[0.9, 0.5, 0.1]","[u'low', u'high', u'medium']","black",50,"middle","high","False","False",338,2600,NA
"A3OGOTSOMQTDMN","Sun Oct 04 2020 19:05:06 GMT-0700 (Pacific Daylight Time)","Sun Oct 04 2020 19:14:24 GMT-0700 (Pacific Daylight Time)","Mozilla/5.0 (Windows NT 6.3; Win64; x64) AppleWebKit/537.36 (KHTML, like Gecko) Chrome/85.0.4183.102 Safari/537.36",48,"[0.9, 0.5, 0.1]","[0.8, 0.4, 0.2]","[u'blue', u'black', u'red']","[u'left', u'middle', u'right']","[0.9, 0.5, 0.1]","[u'low', u'high', u'medium']","blue",49,"left","low","False","False",418,2550,NA
"A3OGOTSOMQTDMN","Sun Oct 04 2020 19:05:06 GMT-0700 (Pacific Daylight Time)","Sun Oct 04 2020 19:14:24 GMT-0700 (Pacific Daylight Time)","Mozilla/5.0 (Windows NT 6.3; Win64; x64) AppleWebKit/537.36 (KHTML, like Gecko) Chrome/85.0.4183.102 Safari/537.36",49,"[0.9, 0.5, 0.1]","[0.8, 0.4, 0.2]","[u'blue', u'black', u'red']","[u'left', u'middle', u'right']","[0.9, 0.5, 0.1]","[u'low', u'high', u'medium']","red",51,"right","medium","True","False",310,2650,NA
"A3OGOTSOMQTDMN","Sun Oct 04 2020 19:05:06 GMT-0700 (Pacific Daylight Time)","Sun Oct 04 2020 19:14:24 GMT-0700 (Pacific Daylight Time)","Mozilla/5.0 (Windows NT 6.3; Win64; x64) AppleWebKit/537.36 (KHTML, like Gecko) Chrome/85.0.4183.102 Safari/537.36",50,"[0.9, 0.5, 0.1]","[0.8, 0.4, 0.2]","[u'blue', u'black', u'red']","[u'left', u'middle', u'right']","[0.9, 0.5, 0.1]","[u'low', u'high', u'medium']","red",51,"right","medium","True","False",193,2750,NA
"A3OGOTSOMQTDMN","Sun Oct 04 2020 19:05:06 GMT-0700 (Pacific Daylight Time)","Sun Oct 04 2020 19:14:24 GMT-0700 (Pacific Daylight Time)","Mozilla/5.0 (Windows NT 6.3; Win64; x64) AppleWebKit/537.36 (KHTML, like Gecko) Chrome/85.0.4183.102 Safari/537.36",51,"[0.9, 0.5, 0.1]","[0.8, 0.4, 0.2]","[u'blue', u'black', u'red']","[u'left', u'middle', u'right']","[0.9, 0.5, 0.1]","[u'low', u'high', u'medium']","red",51,"right","medium","False","False",924,2700,NA
"A3OGOTSOMQTDMN","Sun Oct 04 2020 19:05:06 GMT-0700 (Pacific Daylight Time)","Sun Oct 04 2020 19:14:24 GMT-0700 (Pacific Daylight Time)","Mozilla/5.0 (Windows NT 6.3; Win64; x64) AppleWebKit/537.36 (KHTML, like Gecko) Chrome/85.0.4183.102 Safari/537.36",52,"[0.9, 0.5, 0.1]","[0.8, 0.4, 0.2]","[u'blue', u'black', u'red']","[u'left', u'middle', u'right']","[0.9, 0.5, 0.1]","[u'low', u'high', u'medium']","blue",49,"left","low","False","False",428,2650,NA
"A3OGOTSOMQTDMN","Sun Oct 04 2020 19:05:06 GMT-0700 (Pacific Daylight Time)","Sun Oct 04 2020 19:14:24 GMT-0700 (Pacific Daylight Time)","Mozilla/5.0 (Windows NT 6.3; Win64; x64) AppleWebKit/537.36 (KHTML, like Gecko) Chrome/85.0.4183.102 Safari/537.36",53,"[0.9, 0.5, 0.1]","[0.8, 0.4, 0.2]","[u'blue', u'black', u'red']","[u'left', u'middle', u'right']","[0.9, 0.5, 0.1]","[u'low', u'high', u'medium']","black",50,"middle","high","True","False",599,2750,NA
"A3OGOTSOMQTDMN","Sun Oct 04 2020 19:05:06 GMT-0700 (Pacific Daylight Time)","Sun Oct 04 2020 19:14:24 GMT-0700 (Pacific Daylight Time)","Mozilla/5.0 (Windows NT 6.3; Win64; x64) AppleWebKit/537.36 (KHTML, like Gecko) Chrome/85.0.4183.102 Safari/537.36",54,"[0.9, 0.5, 0.1]","[0.8, 0.4, 0.2]","[u'blue', u'black', u'red']","[u'left', u'middle', u'right']","[0.9, 0.5, 0.1]","[u'low', u'high', u'medium']","black",50,"middle","high","True","False",479,2850,NA
"A3OGOTSOMQTDMN","Sun Oct 04 2020 19:05:06 GMT-0700 (Pacific Daylight Time)","Sun Oct 04 2020 19:14:24 GMT-0700 (Pacific Daylight Time)","Mozilla/5.0 (Windows NT 6.3; Win64; x64) AppleWebKit/537.36 (KHTML, like Gecko) Chrome/85.0.4183.102 Safari/537.36",55,"[0.9, 0.5, 0.1]","[0.8, 0.4, 0.2]","[u'blue', u'black', u'red']","[u'left', u'middle', u'right']","[0.9, 0.5, 0.1]","[u'low', u'high', u'medium']","black",50,"middle","high","True","False",940,2950,NA
"A3OGOTSOMQTDMN","Sun Oct 04 2020 19:05:06 GMT-0700 (Pacific Daylight Time)","Sun Oct 04 2020 19:14:24 GMT-0700 (Pacific Daylight Time)","Mozilla/5.0 (Windows NT 6.3; Win64; x64) AppleWebKit/537.36 (KHTML, like Gecko) Chrome/85.0.4183.102 Safari/537.36",56,"[0.9, 0.5, 0.1]","[0.8, 0.4, 0.2]","[u'blue', u'black', u'red']","[u'left', u'middle', u'right']","[0.9, 0.5, 0.1]","[u'low', u'high', u'medium']","black",50,"middle","high","True","False",607,3050,NA
"A3OGOTSOMQTDMN","Sun Oct 04 2020 19:05:06 GMT-0700 (Pacific Daylight Time)","Sun Oct 04 2020 19:14:24 GMT-0700 (Pacific Daylight Time)","Mozilla/5.0 (Windows NT 6.3; Win64; x64) AppleWebKit/537.36 (KHTML, like Gecko) Chrome/85.0.4183.102 Safari/537.36",57,"[0.9, 0.5, 0.1]","[0.8, 0.4, 0.2]","[u'blue', u'black', u'red']","[u'left', u'middle', u'right']","[0.9, 0.5, 0.1]","[u'low', u'high', u'medium']","black",50,"middle","high","True","False",469,3150,NA
"A3OGOTSOMQTDMN","Sun Oct 04 2020 19:05:06 GMT-0700 (Pacific Daylight Time)","Sun Oct 04 2020 19:14:24 GMT-0700 (Pacific Daylight Time)","Mozilla/5.0 (Windows NT 6.3; Win64; x64) AppleWebKit/537.36 (KHTML, like Gecko) Chrome/85.0.4183.102 Safari/537.36",58,"[0.9, 0.5, 0.1]","[0.8, 0.4, 0.2]","[u'blue', u'black', u'red']","[u'left', u'middle', u'right']","[0.9, 0.5, 0.1]","[u'low', u'high', u'medium']","black",50,"middle","high","True","False",957,3250,NA
"A3OGOTSOMQTDMN","Sun Oct 04 2020 19:05:06 GMT-0700 (Pacific Daylight Time)","Sun Oct 04 2020 19:14:24 GMT-0700 (Pacific Daylight Time)","Mozilla/5.0 (Windows NT 6.3; Win64; x64) AppleWebKit/537.36 (KHTML, like Gecko) Chrome/85.0.4183.102 Safari/537.36",59,"[0.9, 0.5, 0.1]","[0.8, 0.4, 0.2]","[u'blue', u'black', u'red']","[u'left', u'middle', u'right']","[0.9, 0.5, 0.1]","[u'low', u'high', u'medium']","black",50,"middle","high","True","False",269,3350,NA
"A3OGOTSOMQTDMN","Sun Oct 04 2020 19:05:06 GMT-0700 (Pacific Daylight Time)","Sun Oct 04 2020 19:14:24 GMT-0700 (Pacific Daylight Time)","Mozilla/5.0 (Windows NT 6.3; Win64; x64) AppleWebKit/537.36 (KHTML, like Gecko) Chrome/85.0.4183.102 Safari/537.36",60,"[0.9, 0.5, 0.1]","[0.8, 0.4, 0.2]","[u'blue', u'black', u'red']","[u'left', u'middle', u'right']","[0.9, 0.5, 0.1]","[u'low', u'high', u'medium']","black",50,"middle","high","True","False",669,3450,NA
"A3OGOTSOMQTDMN","Sun Oct 04 2020 19:05:06 GMT-0700 (Pacific Daylight Time)","Sun Oct 04 2020 19:14:24 GMT-0700 (Pacific Daylight Time)","Mozilla/5.0 (Windows NT 6.3; Win64; x64) AppleWebKit/537.36 (KHTML, like Gecko) Chrome/85.0.4183.102 Safari/537.36",61,"[0.9, 0.5, 0.1]","[0.8, 0.4, 0.2]","[u'blue', u'black', u'red']","[u'left', u'middle', u'right']","[0.9, 0.5, 0.1]","[u'low', u'high', u'medium']","black",50,"middle","high","False","True",205,3400,NA
"A3OGOTSOMQTDMN","Sun Oct 04 2020 19:05:06 GMT-0700 (Pacific Daylight Time)","Sun Oct 04 2020 19:14:24 GMT-0700 (Pacific Daylight Time)","Mozilla/5.0 (Windows NT 6.3; Win64; x64) AppleWebKit/537.36 (KHTML, like Gecko) Chrome/85.0.4183.102 Safari/537.36",62,"[0.9, 0.5, 0.1]","[0.8, 0.4, 0.2]","[u'blue', u'black', u'red']","[u'left', u'middle', u'right']","[0.9, 0.5, 0.1]","[u'high', u'low', u'medium']","red",51,"right","medium","False","False",340,3350,NA
"A3OGOTSOMQTDMN","Sun Oct 04 2020 19:05:06 GMT-0700 (Pacific Daylight Time)","Sun Oct 04 2020 19:14:24 GMT-0700 (Pacific Daylight Time)","Mozilla/5.0 (Windows NT 6.3; Win64; x64) AppleWebKit/537.36 (KHTML, like Gecko) Chrome/85.0.4183.102 Safari/537.36",63,"[0.9, 0.5, 0.1]","[0.8, 0.4, 0.2]","[u'blue', u'black', u'red']","[u'left', u'middle', u'right']","[0.9, 0.5, 0.1]","[u'high', u'low', u'medium']","blue",49,"left","high","True","False",59,3450,NA
"A3OGOTSOMQTDMN","Sun Oct 04 2020 19:05:06 GMT-0700 (Pacific Daylight Time)","Sun Oct 04 2020 19:14:24 GMT-0700 (Pacific Daylight Time)","Mozilla/5.0 (Windows NT 6.3; Win64; x64) AppleWebKit/537.36 (KHTML, like Gecko) Chrome/85.0.4183.102 Safari/537.36",64,"[0.9, 0.5, 0.1]","[0.8, 0.4, 0.2]","[u'blue', u'black', u'red']","[u'left', u'middle', u'right']","[0.9, 0.5, 0.1]","[u'high', u'low', u'medium']","blue",49,"left","high","True","False",309,3550,NA
"A3OGOTSOMQTDMN","Sun Oct 04 2020 19:05:06 GMT-0700 (Pacific Daylight Time)","Sun Oct 04 2020 19:14:24 GMT-0700 (Pacific Daylight Time)","Mozilla/5.0 (Windows NT 6.3; Win64; x64) AppleWebKit/537.36 (KHTML, like Gecko) Chrome/85.0.4183.102 Safari/537.36",65,"[0.9, 0.5, 0.1]","[0.8, 0.4, 0.2]","[u'blue', u'black', u'red']","[u'left', u'middle', u'right']","[0.9, 0.5, 0.1]","[u'high', u'low', u'medium']","blue",49,"left","high","True","False",336,3650,NA
"A3OGOTSOMQTDMN","Sun Oct 04 2020 19:05:06 GMT-0700 (Pacific Daylight Time)","Sun Oct 04 2020 19:14:24 GMT-0700 (Pacific Daylight Time)","Mozilla/5.0 (Windows NT 6.3; Win64; x64) AppleWebKit/537.36 (KHTML, like Gecko) Chrome/85.0.4183.102 Safari/537.36",66,"[0.9, 0.5, 0.1]","[0.8, 0.4, 0.2]","[u'blue', u'black', u'red']","[u'left', u'middle', u'right']","[0.9, 0.5, 0.1]","[u'high', u'low', u'medium']","blue",49,"left","high","True","False",350,3750,NA
"A3OGOTSOMQTDMN","Sun Oct 04 2020 19:05:06 GMT-0700 (Pacific Daylight Time)","Sun Oct 04 2020 19:14:24 GMT-0700 (Pacific Daylight Time)","Mozilla/5.0 (Windows NT 6.3; Win64; x64) AppleWebKit/537.36 (KHTML, like Gecko) Chrome/85.0.4183.102 Safari/537.36",67,"[0.9, 0.5, 0.1]","[0.8, 0.4, 0.2]","[u'blue', u'black', u'red']","[u'left', u'middle', u'right']","[0.9, 0.5, 0.1]","[u'high', u'low', u'medium']","blue",49,"left","high","True","False",256,3850,NA
"A3OGOTSOMQTDMN","Sun Oct 04 2020 19:05:06 GMT-0700 (Pacific Daylight Time)","Sun Oct 04 2020 19:14:24 GMT-0700 (Pacific Daylight Time)","Mozilla/5.0 (Windows NT 6.3; Win64; x64) AppleWebKit/537.36 (KHTML, like Gecko) Chrome/85.0.4183.102 Safari/537.36",68,"[0.9, 0.5, 0.1]","[0.8, 0.4, 0.2]","[u'blue', u'black', u'red']","[u'left', u'middle', u'right']","[0.9, 0.5, 0.1]","[u'high', u'low', u'medium']","blue",49,"left","high","True","False",152,3950,NA
"A3OGOTSOMQTDMN","Sun Oct 04 2020 19:05:06 GMT-0700 (Pacific Daylight Time)","Sun Oct 04 2020 19:14:24 GMT-0700 (Pacific Daylight Time)","Mozilla/5.0 (Windows NT 6.3; Win64; x64) AppleWebKit/537.36 (KHTML, like Gecko) Chrome/85.0.4183.102 Safari/537.36",69,"[0.9, 0.5, 0.1]","[0.8, 0.4, 0.2]","[u'blue', u'black', u'red']","[u'left', u'middle', u'right']","[0.9, 0.5, 0.1]","[u'high', u'low', u'medium']","blue",49,"left","high","True","False",164,4050,NA
"A3OGOTSOMQTDMN","Sun Oct 04 2020 19:05:06 GMT-0700 (Pacific Daylight Time)","Sun Oct 04 2020 19:14:24 GMT-0700 (Pacific Daylight Time)","Mozilla/5.0 (Windows NT 6.3; Win64; x64) AppleWebKit/537.36 (KHTML, like Gecko) Chrome/85.0.4183.102 Safari/537.36",70,"[0.9, 0.5, 0.1]","[0.8, 0.4, 0.2]","[u'blue', u'black', u'red']","[u'left', u'middle', u'right']","[0.9, 0.5, 0.1]","[u'high', u'low', u'medium']","blue",49,"left","high","True","False",274,4150,NA
"A3OGOTSOMQTDMN","Sun Oct 04 2020 19:05:06 GMT-0700 (Pacific Daylight Time)","Sun Oct 04 2020 19:14:24 GMT-0700 (Pacific Daylight Time)","Mozilla/5.0 (Windows NT 6.3; Win64; x64) AppleWebKit/537.36 (KHTML, like Gecko) Chrome/85.0.4183.102 Safari/537.36",71,"[0.9, 0.5, 0.1]","[0.8, 0.4, 0.2]","[u'blue', u'black', u'red']","[u'left', u'middle', u'right']","[0.9, 0.5, 0.1]","[u'high', u'low', u'medium']","blue",49,"left","high","True","True",237,4250,NA
"A3OGOTSOMQTDMN","Sun Oct 04 2020 19:05:06 GMT-0700 (Pacific Daylight Time)","Sun Oct 04 2020 19:14:24 GMT-0700 (Pacific Daylight Time)","Mozilla/5.0 (Windows NT 6.3; Win64; x64) AppleWebKit/537.36 (KHTML, like Gecko) Chrome/85.0.4183.102 Safari/537.36",72,"[0.9, 0.5, 0.1]","[0.8, 0.4, 0.2]","[u'blue', u'black', u'red']","[u'left', u'middle', u'right']","[0.9, 0.5, 0.1]","[u'medium', u'high', u'low']","blue",49,"left","medium","False","False",468,4200,NA
"A3OGOTSOMQTDMN","Sun Oct 04 2020 19:05:06 GMT-0700 (Pacific Daylight Time)","Sun Oct 04 2020 19:14:24 GMT-0700 (Pacific Daylight Time)","Mozilla/5.0 (Windows NT 6.3; Win64; x64) AppleWebKit/537.36 (KHTML, like Gecko) Chrome/85.0.4183.102 Safari/537.36",73,"[0.9, 0.5, 0.1]","[0.8, 0.4, 0.2]","[u'blue', u'black', u'red']","[u'left', u'middle', u'right']","[0.9, 0.5, 0.1]","[u'medium', u'high', u'low']","red",51,"right","low","False","False",698,4150,NA
"A3OGOTSOMQTDMN","Sun Oct 04 2020 19:05:06 GMT-0700 (Pacific Daylight Time)","Sun Oct 04 2020 19:14:24 GMT-0700 (Pacific Daylight Time)","Mozilla/5.0 (Windows NT 6.3; Win64; x64) AppleWebKit/537.36 (KHTML, like Gecko) Chrome/85.0.4183.102 Safari/537.36",74,"[0.9, 0.5, 0.1]","[0.8, 0.4, 0.2]","[u'blue', u'black', u'red']","[u'left', u'middle', u'right']","[0.9, 0.5, 0.1]","[u'medium', u'high', u'low']","black",50,"middle","high","True","False",88,4250,NA
"A3OGOTSOMQTDMN","Sun Oct 04 2020 19:05:06 GMT-0700 (Pacific Daylight Time)","Sun Oct 04 2020 19:14:24 GMT-0700 (Pacific Daylight Time)","Mozilla/5.0 (Windows NT 6.3; Win64; x64) AppleWebKit/537.36 (KHTML, like Gecko) Chrome/85.0.4183.102 Safari/537.36",75,"[0.9, 0.5, 0.1]","[0.8, 0.4, 0.2]","[u'blue', u'black', u'red']","[u'left', u'middle', u'right']","[0.9, 0.5, 0.1]","[u'medium', u'high', u'low']","black",50,"middle","high","True","False",1121,4350,NA
"A3OGOTSOMQTDMN","Sun Oct 04 2020 19:05:06 GMT-0700 (Pacific Daylight Time)","Sun Oct 04 2020 19:14:24 GMT-0700 (Pacific Daylight Time)","Mozilla/5.0 (Windows NT 6.3; Win64; x64) AppleWebKit/537.36 (KHTML, like Gecko) Chrome/85.0.4183.102 Safari/537.36",76,"[0.9, 0.5, 0.1]","[0.8, 0.4, 0.2]","[u'blue', u'black', u'red']","[u'left', u'middle', u'right']","[0.9, 0.5, 0.1]","[u'medium', u'high', u'low']","black",50,"middle","high","True","False",721,4450,NA
"A3OGOTSOMQTDMN","Sun Oct 04 2020 19:05:06 GMT-0700 (Pacific Daylight Time)","Sun Oct 04 2020 19:14:24 GMT-0700 (Pacific Daylight Time)","Mozilla/5.0 (Windows NT 6.3; Win64; x64) AppleWebKit/537.36 (KHTML, like Gecko) Chrome/85.0.4183.102 Safari/537.36",77,"[0.9, 0.5, 0.1]","[0.8, 0.4, 0.2]","[u'blue', u'black', u'red']","[u'left', u'middle', u'right']","[0.9, 0.5, 0.1]","[u'medium', u'high', u'low']","black",50,"middle","high","True","False",224,4550,NA
"A3OGOTSOMQTDMN","Sun Oct 04 2020 19:05:06 GMT-0700 (Pacific Daylight Time)","Sun Oct 04 2020 19:14:24 GMT-0700 (Pacific Daylight Time)","Mozilla/5.0 (Windows NT 6.3; Win64; x64) AppleWebKit/537.36 (KHTML, like Gecko) Chrome/85.0.4183.102 Safari/537.36",78,"[0.9, 0.5, 0.1]","[0.8, 0.4, 0.2]","[u'blue', u'black', u'red']","[u'left', u'middle', u'right']","[0.9, 0.5, 0.1]","[u'medium', u'high', u'low']","black",50,"middle","high","True","False",27,4650,NA
"A3OGOTSOMQTDMN","Sun Oct 04 2020 19:05:06 GMT-0700 (Pacific Daylight Time)","Sun Oct 04 2020 19:14:24 GMT-0700 (Pacific Daylight Time)","Mozilla/5.0 (Windows NT 6.3; Win64; x64) AppleWebKit/537.36 (KHTML, like Gecko) Chrome/85.0.4183.102 Safari/537.36",79,"[0.9, 0.5, 0.1]","[0.8, 0.4, 0.2]","[u'blue', u'black', u'red']","[u'left', u'middle', u'right']","[0.9, 0.5, 0.1]","[u'medium', u'high', u'low']","black",50,"middle","high","True","False",361,4750,NA
"A3OGOTSOMQTDMN","Sun Oct 04 2020 19:05:06 GMT-0700 (Pacific Daylight Time)","Sun Oct 04 2020 19:14:24 GMT-0700 (Pacific Daylight Time)","Mozilla/5.0 (Windows NT 6.3; Win64; x64) AppleWebKit/537.36 (KHTML, like Gecko) Chrome/85.0.4183.102 Safari/537.36",80,"[0.9, 0.5, 0.1]","[0.8, 0.4, 0.2]","[u'blue', u'black', u'red']","[u'left', u'middle', u'right']","[0.9, 0.5, 0.1]","[u'medium', u'high', u'low']","black",50,"middle","high","True","False",620,4850,NA
"A3OGOTSOMQTDMN","Sun Oct 04 2020 19:05:06 GMT-0700 (Pacific Daylight Time)","Sun Oct 04 2020 19:14:24 GMT-0700 (Pacific Daylight Time)","Mozilla/5.0 (Windows NT 6.3; Win64; x64) AppleWebKit/537.36 (KHTML, like Gecko) Chrome/85.0.4183.102 Safari/537.36",81,"[0.9, 0.5, 0.1]","[0.8, 0.4, 0.2]","[u'blue', u'black', u'red']","[u'left', u'middle', u'right']","[0.8, 0.4, 0.2]","[u'medium', u'low', u'high']","black",50,"middle","low","True","False",1503,4950,NA
"A3OGOTSOMQTDMN","Sun Oct 04 2020 19:05:06 GMT-0700 (Pacific Daylight Time)","Sun Oct 04 2020 19:14:24 GMT-0700 (Pacific Daylight Time)","Mozilla/5.0 (Windows NT 6.3; Win64; x64) AppleWebKit/537.36 (KHTML, like Gecko) Chrome/85.0.4183.102 Safari/537.36",82,"[0.9, 0.5, 0.1]","[0.8, 0.4, 0.2]","[u'blue', u'black', u'red']","[u'left', u'middle', u'right']","[0.8, 0.4, 0.2]","[u'medium', u'low', u'high']","black",50,"middle","low","False","False",985,4900,NA
"A3OGOTSOMQTDMN","Sun Oct 04 2020 19:05:06 GMT-0700 (Pacific Daylight Time)","Sun Oct 04 2020 19:14:24 GMT-0700 (Pacific Daylight Time)","Mozilla/5.0 (Windows NT 6.3; Win64; x64) AppleWebKit/537.36 (KHTML, like Gecko) Chrome/85.0.4183.102 Safari/537.36",83,"[0.9, 0.5, 0.1]","[0.8, 0.4, 0.2]","[u'blue', u'black', u'red']","[u'left', u'middle', u'right']","[0.8, 0.4, 0.2]","[u'medium', u'low', u'high']","blue",49,"left","medium","False","False",275,4850,NA
"A3OGOTSOMQTDMN","Sun Oct 04 2020 19:05:06 GMT-0700 (Pacific Daylight Time)","Sun Oct 04 2020 19:14:24 GMT-0700 (Pacific Daylight Time)","Mozilla/5.0 (Windows NT 6.3; Win64; x64) AppleWebKit/537.36 (KHTML, like Gecko) Chrome/85.0.4183.102 Safari/537.36",84,"[0.9, 0.5, 0.1]","[0.8, 0.4, 0.2]","[u'blue', u'black', u'red']","[u'left', u'middle', u'right']","[0.8, 0.4, 0.2]","[u'medium', u'low', u'high']","red",51,"right","high","True","False",301,4950,NA
"A3OGOTSOMQTDMN","Sun Oct 04 2020 19:05:06 GMT-0700 (Pacific Daylight Time)","Sun Oct 04 2020 19:14:24 GMT-0700 (Pacific Daylight Time)","Mozilla/5.0 (Windows NT 6.3; Win64; x64) AppleWebKit/537.36 (KHTML, like Gecko) Chrome/85.0.4183.102 Safari/537.36",85,"[0.9, 0.5, 0.1]","[0.8, 0.4, 0.2]","[u'blue', u'black', u'red']","[u'left', u'middle', u'right']","[0.8, 0.4, 0.2]","[u'medium', u'low', u'high']","red",51,"right","high","True","False",1056,5050,NA
"A3OGOTSOMQTDMN","Sun Oct 04 2020 19:05:06 GMT-0700 (Pacific Daylight Time)","Sun Oct 04 2020 19:14:24 GMT-0700 (Pacific Daylight Time)","Mozilla/5.0 (Windows NT 6.3; Win64; x64) AppleWebKit/537.36 (KHTML, like Gecko) Chrome/85.0.4183.102 Safari/537.36",86,"[0.9, 0.5, 0.1]","[0.8, 0.4, 0.2]","[u'blue', u'black', u'red']","[u'left', u'middle', u'right']","[0.8, 0.4, 0.2]","[u'medium', u'low', u'high']","red",51,"right","high","False","False",513,5000,NA
"A3OGOTSOMQTDMN","Sun Oct 04 2020 19:05:06 GMT-0700 (Pacific Daylight Time)","Sun Oct 04 2020 19:14:24 GMT-0700 (Pacific Daylight Time)","Mozilla/5.0 (Windows NT 6.3; Win64; x64) AppleWebKit/537.36 (KHTML, like Gecko) Chrome/85.0.4183.102 Safari/537.36",87,"[0.9, 0.5, 0.1]","[0.8, 0.4, 0.2]","[u'blue', u'black', u'red']","[u'left', u'middle', u'right']","[0.8, 0.4, 0.2]","[u'medium', u'low', u'high']","red",51,"right","high","True","False",1095,5100,NA
"A3OGOTSOMQTDMN","Sun Oct 04 2020 19:05:06 GMT-0700 (Pacific Daylight Time)","Sun Oct 04 2020 19:14:24 GMT-0700 (Pacific Daylight Time)","Mozilla/5.0 (Windows NT 6.3; Win64; x64) AppleWebKit/537.36 (KHTML, like Gecko) Chrome/85.0.4183.102 Safari/537.36",88,"[0.9, 0.5, 0.1]","[0.8, 0.4, 0.2]","[u'blue', u'black', u'red']","[u'left', u'middle', u'right']","[0.8, 0.4, 0.2]","[u'medium', u'low', u'high']","red",51,"right","high","False","False",155,5050,NA
"A3OGOTSOMQTDMN","Sun Oct 04 2020 19:05:06 GMT-0700 (Pacific Daylight Time)","Sun Oct 04 2020 19:14:24 GMT-0700 (Pacific Daylight Time)","Mozilla/5.0 (Windows NT 6.3; Win64; x64) AppleWebKit/537.36 (KHTML, like Gecko) Chrome/85.0.4183.102 Safari/537.36",89,"[0.9, 0.5, 0.1]","[0.8, 0.4, 0.2]","[u'blue', u'black', u'red']","[u'left', u'middle', u'right']","[0.8, 0.4, 0.2]","[u'medium', u'low', u'high']","blue",49,"left","medium","False","False",1131,5000,NA
"A3OGOTSOMQTDMN","Sun Oct 04 2020 19:05:06 GMT-0700 (Pacific Daylight Time)","Sun Oct 04 2020 19:14:24 GMT-0700 (Pacific Daylight Time)","Mozilla/5.0 (Windows NT 6.3; Win64; x64) AppleWebKit/537.36 (KHTML, like Gecko) Chrome/85.0.4183.102 Safari/537.36",90,"[0.9, 0.5, 0.1]","[0.8, 0.4, 0.2]","[u'blue', u'black', u'red']","[u'left', u'middle', u'right']","[0.8, 0.4, 0.2]","[u'medium', u'low', u'high']","black",50,"middle","low","False","False",286,4950,NA
"A3OGOTSOMQTDMN","Sun Oct 04 2020 19:05:06 GMT-0700 (Pacific Daylight Time)","Sun Oct 04 2020 19:14:24 GMT-0700 (Pacific Daylight Time)","Mozilla/5.0 (Windows NT 6.3; Win64; x64) AppleWebKit/537.36 (KHTML, like Gecko) Chrome/85.0.4183.102 Safari/537.36",91,"[0.9, 0.5, 0.1]","[0.8, 0.4, 0.2]","[u'blue', u'black', u'red']","[u'left', u'middle', u'right']","[0.8, 0.4, 0.2]","[u'medium', u'low', u'high']","blue",49,"left","medium","False","False",1128,4900,NA
"A3OGOTSOMQTDMN","Sun Oct 04 2020 19:05:06 GMT-0700 (Pacific Daylight Time)","Sun Oct 04 2020 19:14:24 GMT-0700 (Pacific Daylight Time)","Mozilla/5.0 (Windows NT 6.3; Win64; x64) AppleWebKit/537.36 (KHTML, like Gecko) Chrome/85.0.4183.102 Safari/537.36",92,"[0.9, 0.5, 0.1]","[0.8, 0.4, 0.2]","[u'blue', u'black', u'red']","[u'left', u'middle', u'right']","[0.8, 0.4, 0.2]","[u'medium', u'low', u'high']","red",51,"right","high","True","False",939,5000,NA
"A3OGOTSOMQTDMN","Sun Oct 04 2020 19:05:06 GMT-0700 (Pacific Daylight Time)","Sun Oct 04 2020 19:14:24 GMT-0700 (Pacific Daylight Time)","Mozilla/5.0 (Windows NT 6.3; Win64; x64) AppleWebKit/537.36 (KHTML, like Gecko) Chrome/85.0.4183.102 Safari/537.36",93,"[0.9, 0.5, 0.1]","[0.8, 0.4, 0.2]","[u'blue', u'black', u'red']","[u'left', u'middle', u'right']","[0.8, 0.4, 0.2]","[u'medium', u'low', u'high']","red",51,"right","high","False","False",339,4950,NA
"A3OGOTSOMQTDMN","Sun Oct 04 2020 19:05:06 GMT-0700 (Pacific Daylight Time)","Sun Oct 04 2020 19:14:24 GMT-0700 (Pacific Daylight Time)","Mozilla/5.0 (Windows NT 6.3; Win64; x64) AppleWebKit/537.36 (KHTML, like Gecko) Chrome/85.0.4183.102 Safari/537.36",94,"[0.9, 0.5, 0.1]","[0.8, 0.4, 0.2]","[u'blue', u'black', u'red']","[u'left', u'middle', u'right']","[0.8, 0.4, 0.2]","[u'medium', u'low', u'high']","black",50,"middle","low","False","False",159,4900,NA
"A3OGOTSOMQTDMN","Sun Oct 04 2020 19:05:06 GMT-0700 (Pacific Daylight Time)","Sun Oct 04 2020 19:14:24 GMT-0700 (Pacific Daylight Time)","Mozilla/5.0 (Windows NT 6.3; Win64; x64) AppleWebKit/537.36 (KHTML, like Gecko) Chrome/85.0.4183.102 Safari/537.36",95,"[0.9, 0.5, 0.1]","[0.8, 0.4, 0.2]","[u'blue', u'black', u'red']","[u'left', u'middle', u'right']","[0.8, 0.4, 0.2]","[u'medium', u'low', u'high']","blue",49,"left","medium","True","False",845,5000,NA
"A3OGOTSOMQTDMN","Sun Oct 04 2020 19:05:06 GMT-0700 (Pacific Daylight Time)","Sun Oct 04 2020 19:14:24 GMT-0700 (Pacific Daylight Time)","Mozilla/5.0 (Windows NT 6.3; Win64; x64) AppleWebKit/537.36 (KHTML, like Gecko) Chrome/85.0.4183.102 Safari/537.36",96,"[0.9, 0.5, 0.1]","[0.8, 0.4, 0.2]","[u'blue', u'black', u'red']","[u'left', u'middle', u'right']","[0.8, 0.4, 0.2]","[u'medium', u'low', u'high']","blue",49,"left","medium","True","False",959,5100,NA
"A3OGOTSOMQTDMN","Sun Oct 04 2020 19:05:06 GMT-0700 (Pacific Daylight Time)","Sun Oct 04 2020 19:14:24 GMT-0700 (Pacific Daylight Time)","Mozilla/5.0 (Windows NT 6.3; Win64; x64) AppleWebKit/537.36 (KHTML, like Gecko) Chrome/85.0.4183.102 Safari/537.36",97,"[0.9, 0.5, 0.1]","[0.8, 0.4, 0.2]","[u'blue', u'black', u'red']","[u'left', u'middle', u'right']","[0.8, 0.4, 0.2]","[u'medium', u'low', u'high']","blue",49,"left","medium","True","False",777,5200,NA
"A3OGOTSOMQTDMN","Sun Oct 04 2020 19:05:06 GMT-0700 (Pacific Daylight Time)","Sun Oct 04 2020 19:14:24 GMT-0700 (Pacific Daylight Time)","Mozilla/5.0 (Windows NT 6.3; Win64; x64) AppleWebKit/537.36 (KHTML, like Gecko) Chrome/85.0.4183.102 Safari/537.36",98,"[0.9, 0.5, 0.1]","[0.8, 0.4, 0.2]","[u'blue', u'black', u'red']","[u'left', u'middle', u'right']","[0.8, 0.4, 0.2]","[u'medium', u'low', u'high']","blue",49,"left","medium","False","False",536,5150,NA
"A3OGOTSOMQTDMN","Sun Oct 04 2020 19:05:06 GMT-0700 (Pacific Daylight Time)","Sun Oct 04 2020 19:14:24 GMT-0700 (Pacific Daylight Time)","Mozilla/5.0 (Windows NT 6.3; Win64; x64) AppleWebKit/537.36 (KHTML, like Gecko) Chrome/85.0.4183.102 Safari/537.36",99,"[0.9, 0.5, 0.1]","[0.8, 0.4, 0.2]","[u'blue', u'black', u'red']","[u'left', u'middle', u'right']","[0.8, 0.4, 0.2]","[u'medium', u'low', u'high']","red",51,"right","high","True","False",944,5250,NA
"A3OGOTSOMQTDMN","Sun Oct 04 2020 19:05:06 GMT-0700 (Pacific Daylight Time)","Sun Oct 04 2020 19:14:24 GMT-0700 (Pacific Daylight Time)","Mozilla/5.0 (Windows NT 6.3; Win64; x64) AppleWebKit/537.36 (KHTML, like Gecko) Chrome/85.0.4183.102 Safari/537.36",100,"[0.9, 0.5, 0.1]","[0.8, 0.4, 0.2]","[u'blue', u'black', u'red']","[u'left', u'middle', u'right']","[0.8, 0.4, 0.2]","[u'medium', u'low', u'high']","red",51,"right","high","True","False",370,5350,NA
"A3OGOTSOMQTDMN","Sun Oct 04 2020 19:05:06 GMT-0700 (Pacific Daylight Time)","Sun Oct 04 2020 19:14:24 GMT-0700 (Pacific Daylight Time)","Mozilla/5.0 (Windows NT 6.3; Win64; x64) AppleWebKit/537.36 (KHTML, like Gecko) Chrome/85.0.4183.102 Safari/537.36",101,"[0.9, 0.5, 0.1]","[0.8, 0.4, 0.2]","[u'blue', u'black', u'red']","[u'left', u'middle', u'right']","[0.8, 0.4, 0.2]","[u'medium', u'low', u'high']","red",51,"right","high","False","False",466,5300,NA
"A3OGOTSOMQTDMN","Sun Oct 04 2020 19:05:06 GMT-0700 (Pacific Daylight Time)","Sun Oct 04 2020 19:14:24 GMT-0700 (Pacific Daylight Time)","Mozilla/5.0 (Windows NT 6.3; Win64; x64) AppleWebKit/537.36 (KHTML, like Gecko) Chrome/85.0.4183.102 Safari/537.36",102,"[0.9, 0.5, 0.1]","[0.8, 0.4, 0.2]","[u'blue', u'black', u'red']","[u'left', u'middle', u'right']","[0.8, 0.4, 0.2]","[u'medium', u'low', u'high']","black",50,"middle","low","False","False",947,5250,NA
"A3OGOTSOMQTDMN","Sun Oct 04 2020 19:05:06 GMT-0700 (Pacific Daylight Time)","Sun Oct 04 2020 19:14:24 GMT-0700 (Pacific Daylight Time)","Mozilla/5.0 (Windows NT 6.3; Win64; x64) AppleWebKit/537.36 (KHTML, like Gecko) Chrome/85.0.4183.102 Safari/537.36",103,"[0.9, 0.5, 0.1]","[0.8, 0.4, 0.2]","[u'blue', u'black', u'red']","[u'left', u'middle', u'right']","[0.8, 0.4, 0.2]","[u'medium', u'low', u'high']","blue",49,"left","medium","True","False",786,5350,NA
"A3OGOTSOMQTDMN","Sun Oct 04 2020 19:05:06 GMT-0700 (Pacific Daylight Time)","Sun Oct 04 2020 19:14:24 GMT-0700 (Pacific Daylight Time)","Mozilla/5.0 (Windows NT 6.3; Win64; x64) AppleWebKit/537.36 (KHTML, like Gecko) Chrome/85.0.4183.102 Safari/537.36",104,"[0.9, 0.5, 0.1]","[0.8, 0.4, 0.2]","[u'blue', u'black', u'red']","[u'left', u'middle', u'right']","[0.8, 0.4, 0.2]","[u'medium', u'low', u'high']","blue",49,"left","medium","False","False",421,5300,NA
"A3OGOTSOMQTDMN","Sun Oct 04 2020 19:05:06 GMT-0700 (Pacific Daylight Time)","Sun Oct 04 2020 19:14:24 GMT-0700 (Pacific Daylight Time)","Mozilla/5.0 (Windows NT 6.3; Win64; x64) AppleWebKit/537.36 (KHTML, like Gecko) Chrome/85.0.4183.102 Safari/537.36",105,"[0.9, 0.5, 0.1]","[0.8, 0.4, 0.2]","[u'blue', u'black', u'red']","[u'left', u'middle', u'right']","[0.8, 0.4, 0.2]","[u'medium', u'low', u'high']","black",50,"middle","low","False","False",398,5250,NA
"A3OGOTSOMQTDMN","Sun Oct 04 2020 19:05:06 GMT-0700 (Pacific Daylight Time)","Sun Oct 04 2020 19:14:24 GMT-0700 (Pacific Daylight Time)","Mozilla/5.0 (Windows NT 6.3; Win64; x64) AppleWebKit/537.36 (KHTML, like Gecko) Chrome/85.0.4183.102 Safari/537.36",106,"[0.9, 0.5, 0.1]","[0.8, 0.4, 0.2]","[u'blue', u'black', u'red']","[u'left', u'middle', u'right']","[0.8, 0.4, 0.2]","[u'medium', u'low', u'high']","red",51,"right","high","True","False",417,5350,NA
"A3OGOTSOMQTDMN","Sun Oct 04 2020 19:05:06 GMT-0700 (Pacific Daylight Time)","Sun Oct 04 2020 19:14:24 GMT-0700 (Pacific Daylight Time)","Mozilla/5.0 (Windows NT 6.3; Win64; x64) AppleWebKit/537.36 (KHTML, like Gecko) Chrome/85.0.4183.102 Safari/537.36",107,"[0.9, 0.5, 0.1]","[0.8, 0.4, 0.2]","[u'blue', u'black', u'red']","[u'left', u'middle', u'right']","[0.8, 0.4, 0.2]","[u'medium', u'low', u'high']","red",51,"right","high","True","False",430,5450,NA
"A3OGOTSOMQTDMN","Sun Oct 04 2020 19:05:06 GMT-0700 (Pacific Daylight Time)","Sun Oct 04 2020 19:14:24 GMT-0700 (Pacific Daylight Time)","Mozilla/5.0 (Windows NT 6.3; Win64; x64) AppleWebKit/537.36 (KHTML, like Gecko) Chrome/85.0.4183.102 Safari/537.36",108,"[0.9, 0.5, 0.1]","[0.8, 0.4, 0.2]","[u'blue', u'black', u'red']","[u'left', u'middle', u'right']","[0.8, 0.4, 0.2]","[u'medium', u'low', u'high']","red",51,"right","high","True","False",78,5550,NA
"A3OGOTSOMQTDMN","Sun Oct 04 2020 19:05:06 GMT-0700 (Pacific Daylight Time)","Sun Oct 04 2020 19:14:24 GMT-0700 (Pacific Daylight Time)","Mozilla/5.0 (Windows NT 6.3; Win64; x64) AppleWebKit/537.36 (KHTML, like Gecko) Chrome/85.0.4183.102 Safari/537.36",109,"[0.9, 0.5, 0.1]","[0.8, 0.4, 0.2]","[u'blue', u'black', u'red']","[u'left', u'middle', u'right']","[0.8, 0.4, 0.2]","[u'medium', u'low', u'high']","red",51,"right","high","True","False",463,5650,NA
"A3OGOTSOMQTDMN","Sun Oct 04 2020 19:05:06 GMT-0700 (Pacific Daylight Time)","Sun Oct 04 2020 19:14:24 GMT-0700 (Pacific Daylight Time)","Mozilla/5.0 (Windows NT 6.3; Win64; x64) AppleWebKit/537.36 (KHTML, like Gecko) Chrome/85.0.4183.102 Safari/537.36",110,"[0.9, 0.5, 0.1]","[0.8, 0.4, 0.2]","[u'blue', u'black', u'red']","[u'left', u'middle', u'right']","[0.8, 0.4, 0.2]","[u'medium', u'low', u'high']","red",51,"right","high","False","False",389,5600,NA
"A3OGOTSOMQTDMN","Sun Oct 04 2020 19:05:06 GMT-0700 (Pacific Daylight Time)","Sun Oct 04 2020 19:14:24 GMT-0700 (Pacific Daylight Time)","Mozilla/5.0 (Windows NT 6.3; Win64; x64) AppleWebKit/537.36 (KHTML, like Gecko) Chrome/85.0.4183.102 Safari/537.36",111,"[0.9, 0.5, 0.1]","[0.8, 0.4, 0.2]","[u'blue', u'black', u'red']","[u'left', u'middle', u'right']","[0.8, 0.4, 0.2]","[u'medium', u'low', u'high']","black",50,"middle","low","False","False",383,5550,NA
"A3OGOTSOMQTDMN","Sun Oct 04 2020 19:05:06 GMT-0700 (Pacific Daylight Time)","Sun Oct 04 2020 19:14:24 GMT-0700 (Pacific Daylight Time)","Mozilla/5.0 (Windows NT 6.3; Win64; x64) AppleWebKit/537.36 (KHTML, like Gecko) Chrome/85.0.4183.102 Safari/537.36",112,"[0.9, 0.5, 0.1]","[0.8, 0.4, 0.2]","[u'blue', u'black', u'red']","[u'left', u'middle', u'right']","[0.8, 0.4, 0.2]","[u'medium', u'low', u'high']","blue",49,"left","medium","False","False",1295,5500,NA
"A3OGOTSOMQTDMN","Sun Oct 04 2020 19:05:06 GMT-0700 (Pacific Daylight Time)","Sun Oct 04 2020 19:14:24 GMT-0700 (Pacific Daylight Time)","Mozilla/5.0 (Windows NT 6.3; Win64; x64) AppleWebKit/537.36 (KHTML, like Gecko) Chrome/85.0.4183.102 Safari/537.36",113,"[0.9, 0.5, 0.1]","[0.8, 0.4, 0.2]","[u'blue', u'black', u'red']","[u'left', u'middle', u'right']","[0.8, 0.4, 0.2]","[u'medium', u'low', u'high']","red",51,"right","high","False","False",793,5450,NA
"A3OGOTSOMQTDMN","Sun Oct 04 2020 19:05:06 GMT-0700 (Pacific Daylight Time)","Sun Oct 04 2020 19:14:24 GMT-0700 (Pacific Daylight Time)","Mozilla/5.0 (Windows NT 6.3; Win64; x64) AppleWebKit/537.36 (KHTML, like Gecko) Chrome/85.0.4183.102 Safari/537.36",114,"[0.9, 0.5, 0.1]","[0.8, 0.4, 0.2]","[u'blue', u'black', u'red']","[u'left', u'middle', u'right']","[0.8, 0.4, 0.2]","[u'medium', u'low', u'high']","black",50,"middle","low","False","False",850,5400,NA
"A3OGOTSOMQTDMN","Sun Oct 04 2020 19:05:06 GMT-0700 (Pacific Daylight Time)","Sun Oct 04 2020 19:14:24 GMT-0700 (Pacific Daylight Time)","Mozilla/5.0 (Windows NT 6.3; Win64; x64) AppleWebKit/537.36 (KHTML, like Gecko) Chrome/85.0.4183.102 Safari/537.36",115,"[0.9, 0.5, 0.1]","[0.8, 0.4, 0.2]","[u'blue', u'black', u'red']","[u'left', u'middle', u'right']","[0.8, 0.4, 0.2]","[u'medium', u'low', u'high']","red",51,"right","high","True","False",509,5500,NA
"A3OGOTSOMQTDMN","Sun Oct 04 2020 19:05:06 GMT-0700 (Pacific Daylight Time)","Sun Oct 04 2020 19:14:24 GMT-0700 (Pacific Daylight Time)","Mozilla/5.0 (Windows NT 6.3; Win64; x64) AppleWebKit/537.36 (KHTML, like Gecko) Chrome/85.0.4183.102 Safari/537.36",116,"[0.9, 0.5, 0.1]","[0.8, 0.4, 0.2]","[u'blue', u'black', u'red']","[u'left', u'middle', u'right']","[0.8, 0.4, 0.2]","[u'medium', u'low', u'high']","red",51,"right","high","True","False",235,5600,NA
"A3OGOTSOMQTDMN","Sun Oct 04 2020 19:05:06 GMT-0700 (Pacific Daylight Time)","Sun Oct 04 2020 19:14:24 GMT-0700 (Pacific Daylight Time)","Mozilla/5.0 (Windows NT 6.3; Win64; x64) AppleWebKit/537.36 (KHTML, like Gecko) Chrome/85.0.4183.102 Safari/537.36",117,"[0.9, 0.5, 0.1]","[0.8, 0.4, 0.2]","[u'blue', u'black', u'red']","[u'left', u'middle', u'right']","[0.8, 0.4, 0.2]","[u'medium', u'low', u'high']","red",51,"right","high","True","False",366,5700,NA
"A3OGOTSOMQTDMN","Sun Oct 04 2020 19:05:06 GMT-0700 (Pacific Daylight Time)","Sun Oct 04 2020 19:14:24 GMT-0700 (Pacific Daylight Time)","Mozilla/5.0 (Windows NT 6.3; Win64; x64) AppleWebKit/537.36 (KHTML, like Gecko) Chrome/85.0.4183.102 Safari/537.36",118,"[0.9, 0.5, 0.1]","[0.8, 0.4, 0.2]","[u'blue', u'black', u'red']","[u'left', u'middle', u'right']","[0.8, 0.4, 0.2]","[u'medium', u'low', u'high']","red",51,"right","high","True","False",1107,5800,NA
"A3OGOTSOMQTDMN","Sun Oct 04 2020 19:05:06 GMT-0700 (Pacific Daylight Time)","Sun Oct 04 2020 19:14:24 GMT-0700 (Pacific Daylight Time)","Mozilla/5.0 (Windows NT 6.3; Win64; x64) AppleWebKit/537.36 (KHTML, like Gecko) Chrome/85.0.4183.102 Safari/537.36",119,"[0.9, 0.5, 0.1]","[0.8, 0.4, 0.2]","[u'blue', u'black', u'red']","[u'left', u'middle', u'right']","[0.8, 0.4, 0.2]","[u'medium', u'low', u'high']","red",51,"right","high","True","False",789,5900,NA
"A3OGOTSOMQTDMN","Sun Oct 04 2020 19:05:06 GMT-0700 (Pacific Daylight Time)","Sun Oct 04 2020 19:14:24 GMT-0700 (Pacific Daylight Time)","Mozilla/5.0 (Windows NT 6.3; Win64; x64) AppleWebKit/537.36 (KHTML, like Gecko) Chrome/85.0.4183.102 Safari/537.36",120,"[0.9, 0.5, 0.1]","[0.8, 0.4, 0.2]","[u'blue', u'black', u'red']","[u'left', u'middle', u'right']","[0.8, 0.4, 0.2]","[u'medium', u'low', u'high']","red",51,"right","high","False","False",712,5850,NA
"A3OGOTSOMQTDMN","Sun Oct 04 2020 19:05:06 GMT-0700 (Pacific Daylight Time)","Sun Oct 04 2020 19:14:24 GMT-0700 (Pacific Daylight Time)","Mozilla/5.0 (Windows NT 6.3; Win64; x64) AppleWebKit/537.36 (KHTML, like Gecko) Chrome/85.0.4183.102 Safari/537.36",121,"[0.9, 0.5, 0.1]","[0.8, 0.4, 0.2]","[u'blue', u'black', u'red']","[u'left', u'middle', u'right']","[0.8, 0.4, 0.2]","[u'high', u'medium', u'low']","black",50,"middle","medium","True","False",1276,5950,NA
"A3OGOTSOMQTDMN","Sun Oct 04 2020 19:05:06 GMT-0700 (Pacific Daylight Time)","Sun Oct 04 2020 19:14:24 GMT-0700 (Pacific Daylight Time)","Mozilla/5.0 (Windows NT 6.3; Win64; x64) AppleWebKit/537.36 (KHTML, like Gecko) Chrome/85.0.4183.102 Safari/537.36",122,"[0.9, 0.5, 0.1]","[0.8, 0.4, 0.2]","[u'blue', u'black', u'red']","[u'left', u'middle', u'right']","[0.8, 0.4, 0.2]","[u'high', u'medium', u'low']","black",50,"middle","medium","False","False",848,5900,NA
"A3OGOTSOMQTDMN","Sun Oct 04 2020 19:05:06 GMT-0700 (Pacific Daylight Time)","Sun Oct 04 2020 19:14:24 GMT-0700 (Pacific Daylight Time)","Mozilla/5.0 (Windows NT 6.3; Win64; x64) AppleWebKit/537.36 (KHTML, like Gecko) Chrome/85.0.4183.102 Safari/537.36",123,"[0.9, 0.5, 0.1]","[0.8, 0.4, 0.2]","[u'blue', u'black', u'red']","[u'left', u'middle', u'right']","[0.8, 0.4, 0.2]","[u'high', u'medium', u'low']","blue",49,"left","high","True","False",679,6000,NA
"A3OGOTSOMQTDMN","Sun Oct 04 2020 19:05:06 GMT-0700 (Pacific Daylight Time)","Sun Oct 04 2020 19:14:24 GMT-0700 (Pacific Daylight Time)","Mozilla/5.0 (Windows NT 6.3; Win64; x64) AppleWebKit/537.36 (KHTML, like Gecko) Chrome/85.0.4183.102 Safari/537.36",124,"[0.9, 0.5, 0.1]","[0.8, 0.4, 0.2]","[u'blue', u'black', u'red']","[u'left', u'middle', u'right']","[0.8, 0.4, 0.2]","[u'high', u'medium', u'low']","blue",49,"left","high","True","False",979,6100,NA
"A3OGOTSOMQTDMN","Sun Oct 04 2020 19:05:06 GMT-0700 (Pacific Daylight Time)","Sun Oct 04 2020 19:14:24 GMT-0700 (Pacific Daylight Time)","Mozilla/5.0 (Windows NT 6.3; Win64; x64) AppleWebKit/537.36 (KHTML, like Gecko) Chrome/85.0.4183.102 Safari/537.36",125,"[0.9, 0.5, 0.1]","[0.8, 0.4, 0.2]","[u'blue', u'black', u'red']","[u'left', u'middle', u'right']","[0.8, 0.4, 0.2]","[u'high', u'medium', u'low']","blue",49,"left","high","False","False",1038,6050,NA
"A3OGOTSOMQTDMN","Sun Oct 04 2020 19:05:06 GMT-0700 (Pacific Daylight Time)","Sun Oct 04 2020 19:14:24 GMT-0700 (Pacific Daylight Time)","Mozilla/5.0 (Windows NT 6.3; Win64; x64) AppleWebKit/537.36 (KHTML, like Gecko) Chrome/85.0.4183.102 Safari/537.36",126,"[0.9, 0.5, 0.1]","[0.8, 0.4, 0.2]","[u'blue', u'black', u'red']","[u'left', u'middle', u'right']","[0.8, 0.4, 0.2]","[u'high', u'medium', u'low']","red",51,"right","low","False","False",817,6000,NA
"A3OGOTSOMQTDMN","Sun Oct 04 2020 19:05:06 GMT-0700 (Pacific Daylight Time)","Sun Oct 04 2020 19:14:24 GMT-0700 (Pacific Daylight Time)","Mozilla/5.0 (Windows NT 6.3; Win64; x64) AppleWebKit/537.36 (KHTML, like Gecko) Chrome/85.0.4183.102 Safari/537.36",127,"[0.9, 0.5, 0.1]","[0.8, 0.4, 0.2]","[u'blue', u'black', u'red']","[u'left', u'middle', u'right']","[0.8, 0.4, 0.2]","[u'high', u'medium', u'low']","black",50,"middle","medium","False","False",390,5950,NA
"A3OGOTSOMQTDMN","Sun Oct 04 2020 19:05:06 GMT-0700 (Pacific Daylight Time)","Sun Oct 04 2020 19:14:24 GMT-0700 (Pacific Daylight Time)","Mozilla/5.0 (Windows NT 6.3; Win64; x64) AppleWebKit/537.36 (KHTML, like Gecko) Chrome/85.0.4183.102 Safari/537.36",128,"[0.9, 0.5, 0.1]","[0.8, 0.4, 0.2]","[u'blue', u'black', u'red']","[u'left', u'middle', u'right']","[0.8, 0.4, 0.2]","[u'high', u'medium', u'low']","red",51,"right","low","True","False",1090,6050,NA
"A3OGOTSOMQTDMN","Sun Oct 04 2020 19:05:06 GMT-0700 (Pacific Daylight Time)","Sun Oct 04 2020 19:14:24 GMT-0700 (Pacific Daylight Time)","Mozilla/5.0 (Windows NT 6.3; Win64; x64) AppleWebKit/537.36 (KHTML, like Gecko) Chrome/85.0.4183.102 Safari/537.36",129,"[0.9, 0.5, 0.1]","[0.8, 0.4, 0.2]","[u'blue', u'black', u'red']","[u'left', u'middle', u'right']","[0.8, 0.4, 0.2]","[u'high', u'medium', u'low']","red",51,"right","low","False","False",643,6000,NA
"A3OGOTSOMQTDMN","Sun Oct 04 2020 19:05:06 GMT-0700 (Pacific Daylight Time)","Sun Oct 04 2020 19:14:24 GMT-0700 (Pacific Daylight Time)","Mozilla/5.0 (Windows NT 6.3; Win64; x64) AppleWebKit/537.36 (KHTML, like Gecko) Chrome/85.0.4183.102 Safari/537.36",130,"[0.9, 0.5, 0.1]","[0.8, 0.4, 0.2]","[u'blue', u'black', u'red']","[u'left', u'middle', u'right']","[0.8, 0.4, 0.2]","[u'high', u'medium', u'low']","blue",49,"left","high","True","False",258,6100,NA
"A3OGOTSOMQTDMN","Sun Oct 04 2020 19:05:06 GMT-0700 (Pacific Daylight Time)","Sun Oct 04 2020 19:14:24 GMT-0700 (Pacific Daylight Time)","Mozilla/5.0 (Windows NT 6.3; Win64; x64) AppleWebKit/537.36 (KHTML, like Gecko) Chrome/85.0.4183.102 Safari/537.36",131,"[0.9, 0.5, 0.1]","[0.8, 0.4, 0.2]","[u'blue', u'black', u'red']","[u'left', u'middle', u'right']","[0.8, 0.4, 0.2]","[u'high', u'medium', u'low']","black",50,"middle","medium","False","False",999,6050,NA
"A3OGOTSOMQTDMN","Sun Oct 04 2020 19:05:06 GMT-0700 (Pacific Daylight Time)","Sun Oct 04 2020 19:14:24 GMT-0700 (Pacific Daylight Time)","Mozilla/5.0 (Windows NT 6.3; Win64; x64) AppleWebKit/537.36 (KHTML, like Gecko) Chrome/85.0.4183.102 Safari/537.36",132,"[0.9, 0.5, 0.1]","[0.8, 0.4, 0.2]","[u'blue', u'black', u'red']","[u'left', u'middle', u'right']","[0.8, 0.4, 0.2]","[u'high', u'medium', u'low']","black",50,"middle","medium","False","False",2722,6000,NA
"A3OGOTSOMQTDMN","Sun Oct 04 2020 19:05:06 GMT-0700 (Pacific Daylight Time)","Sun Oct 04 2020 19:14:24 GMT-0700 (Pacific Daylight Time)","Mozilla/5.0 (Windows NT 6.3; Win64; x64) AppleWebKit/537.36 (KHTML, like Gecko) Chrome/85.0.4183.102 Safari/537.36",133,"[0.9, 0.5, 0.1]","[0.8, 0.4, 0.2]","[u'blue', u'black', u'red']","[u'left', u'middle', u'right']","[0.8, 0.4, 0.2]","[u'high', u'medium', u'low']","blue",49,"left","high","True","False",761,6100,NA
"A3OGOTSOMQTDMN","Sun Oct 04 2020 19:05:06 GMT-0700 (Pacific Daylight Time)","Sun Oct 04 2020 19:14:24 GMT-0700 (Pacific Daylight Time)","Mozilla/5.0 (Windows NT 6.3; Win64; x64) AppleWebKit/537.36 (KHTML, like Gecko) Chrome/85.0.4183.102 Safari/537.36",134,"[0.9, 0.5, 0.1]","[0.8, 0.4, 0.2]","[u'blue', u'black', u'red']","[u'left', u'middle', u'right']","[0.8, 0.4, 0.2]","[u'high', u'medium', u'low']","red",51,"right","low","True","False",1126,6200,NA
"A3OGOTSOMQTDMN","Sun Oct 04 2020 19:05:06 GMT-0700 (Pacific Daylight Time)","Sun Oct 04 2020 19:14:24 GMT-0700 (Pacific Daylight Time)","Mozilla/5.0 (Windows NT 6.3; Win64; x64) AppleWebKit/537.36 (KHTML, like Gecko) Chrome/85.0.4183.102 Safari/537.36",135,"[0.9, 0.5, 0.1]","[0.8, 0.4, 0.2]","[u'blue', u'black', u'red']","[u'left', u'middle', u'right']","[0.8, 0.4, 0.2]","[u'high', u'medium', u'low']","blue",49,"left","high","True","False",542,6300,NA
"A3OGOTSOMQTDMN","Sun Oct 04 2020 19:05:06 GMT-0700 (Pacific Daylight Time)","Sun Oct 04 2020 19:14:24 GMT-0700 (Pacific Daylight Time)","Mozilla/5.0 (Windows NT 6.3; Win64; x64) AppleWebKit/537.36 (KHTML, like Gecko) Chrome/85.0.4183.102 Safari/537.36",136,"[0.9, 0.5, 0.1]","[0.8, 0.4, 0.2]","[u'blue', u'black', u'red']","[u'left', u'middle', u'right']","[0.8, 0.4, 0.2]","[u'high', u'medium', u'low']","red",51,"right","low","False","False",555,6250,NA
"A3OGOTSOMQTDMN","Sun Oct 04 2020 19:05:06 GMT-0700 (Pacific Daylight Time)","Sun Oct 04 2020 19:14:24 GMT-0700 (Pacific Daylight Time)","Mozilla/5.0 (Windows NT 6.3; Win64; x64) AppleWebKit/537.36 (KHTML, like Gecko) Chrome/85.0.4183.102 Safari/537.36",137,"[0.9, 0.5, 0.1]","[0.8, 0.4, 0.2]","[u'blue', u'black', u'red']","[u'left', u'middle', u'right']","[0.8, 0.4, 0.2]","[u'high', u'medium', u'low']","blue",49,"left","high","True","False",1260,6350,NA
"A3OGOTSOMQTDMN","Sun Oct 04 2020 19:05:06 GMT-0700 (Pacific Daylight Time)","Sun Oct 04 2020 19:14:24 GMT-0700 (Pacific Daylight Time)","Mozilla/5.0 (Windows NT 6.3; Win64; x64) AppleWebKit/537.36 (KHTML, like Gecko) Chrome/85.0.4183.102 Safari/537.36",138,"[0.9, 0.5, 0.1]","[0.8, 0.4, 0.2]","[u'blue', u'black', u'red']","[u'left', u'middle', u'right']","[0.8, 0.4, 0.2]","[u'high', u'medium', u'low']","black",50,"middle","medium","True","False",817,6450,NA
"A3OGOTSOMQTDMN","Sun Oct 04 2020 19:05:06 GMT-0700 (Pacific Daylight Time)","Sun Oct 04 2020 19:14:24 GMT-0700 (Pacific Daylight Time)","Mozilla/5.0 (Windows NT 6.3; Win64; x64) AppleWebKit/537.36 (KHTML, like Gecko) Chrome/85.0.4183.102 Safari/537.36",139,"[0.9, 0.5, 0.1]","[0.8, 0.4, 0.2]","[u'blue', u'black', u'red']","[u'left', u'middle', u'right']","[0.8, 0.4, 0.2]","[u'high', u'medium', u'low']","red",51,"right","low","False","False",760,6400,NA
"A3OGOTSOMQTDMN","Sun Oct 04 2020 19:05:06 GMT-0700 (Pacific Daylight Time)","Sun Oct 04 2020 19:14:24 GMT-0700 (Pacific Daylight Time)","Mozilla/5.0 (Windows NT 6.3; Win64; x64) AppleWebKit/537.36 (KHTML, like Gecko) Chrome/85.0.4183.102 Safari/537.36",140,"[0.9, 0.5, 0.1]","[0.8, 0.4, 0.2]","[u'blue', u'black', u'red']","[u'left', u'middle', u'right']","[0.8, 0.4, 0.2]","[u'high', u'medium', u'low']","blue",49,"left","high","True","False",513,6500,NA
"A3OGOTSOMQTDMN","Sun Oct 04 2020 19:05:06 GMT-0700 (Pacific Daylight Time)","Sun Oct 04 2020 19:14:24 GMT-0700 (Pacific Daylight Time)","Mozilla/5.0 (Windows NT 6.3; Win64; x64) AppleWebKit/537.36 (KHTML, like Gecko) Chrome/85.0.4183.102 Safari/537.36",141,"[0.9, 0.5, 0.1]","[0.8, 0.4, 0.2]","[u'blue', u'black', u'red']","[u'left', u'middle', u'right']","[0.8, 0.4, 0.2]","[u'high', u'medium', u'low']","black",50,"middle","medium","False","False",728,6450,NA
"A3OGOTSOMQTDMN","Sun Oct 04 2020 19:05:06 GMT-0700 (Pacific Daylight Time)","Sun Oct 04 2020 19:14:24 GMT-0700 (Pacific Daylight Time)","Mozilla/5.0 (Windows NT 6.3; Win64; x64) AppleWebKit/537.36 (KHTML, like Gecko) Chrome/85.0.4183.102 Safari/537.36",142,"[0.9, 0.5, 0.1]","[0.8, 0.4, 0.2]","[u'blue', u'black', u'red']","[u'left', u'middle', u'right']","[0.8, 0.4, 0.2]","[u'high', u'medium', u'low']","black",50,"middle","medium","False","False",1151,6400,NA
"A3OGOTSOMQTDMN","Sun Oct 04 2020 19:05:06 GMT-0700 (Pacific Daylight Time)","Sun Oct 04 2020 19:14:24 GMT-0700 (Pacific Daylight Time)","Mozilla/5.0 (Windows NT 6.3; Win64; x64) AppleWebKit/537.36 (KHTML, like Gecko) Chrome/85.0.4183.102 Safari/537.36",143,"[0.9, 0.5, 0.1]","[0.8, 0.4, 0.2]","[u'blue', u'black', u'red']","[u'left', u'middle', u'right']","[0.8, 0.4, 0.2]","[u'high', u'medium', u'low']","blue",49,"left","high","False","False",639,6350,NA
"A3OGOTSOMQTDMN","Sun Oct 04 2020 19:05:06 GMT-0700 (Pacific Daylight Time)","Sun Oct 04 2020 19:14:24 GMT-0700 (Pacific Daylight Time)","Mozilla/5.0 (Windows NT 6.3; Win64; x64) AppleWebKit/537.36 (KHTML, like Gecko) Chrome/85.0.4183.102 Safari/537.36",144,"[0.9, 0.5, 0.1]","[0.8, 0.4, 0.2]","[u'blue', u'black', u'red']","[u'left', u'middle', u'right']","[0.8, 0.4, 0.2]","[u'high', u'medium', u'low']","red",51,"right","low","True","False",673,6450,NA
"A3OGOTSOMQTDMN","Sun Oct 04 2020 19:05:06 GMT-0700 (Pacific Daylight Time)","Sun Oct 04 2020 19:14:24 GMT-0700 (Pacific Daylight Time)","Mozilla/5.0 (Windows NT 6.3; Win64; x64) AppleWebKit/537.36 (KHTML, like Gecko) Chrome/85.0.4183.102 Safari/537.36",145,"[0.9, 0.5, 0.1]","[0.8, 0.4, 0.2]","[u'blue', u'black', u'red']","[u'left', u'middle', u'right']","[0.8, 0.4, 0.2]","[u'high', u'medium', u'low']","black",50,"middle","medium","False","False",788,6400,NA
"A3OGOTSOMQTDMN","Sun Oct 04 2020 19:05:06 GMT-0700 (Pacific Daylight Time)","Sun Oct 04 2020 19:14:24 GMT-0700 (Pacific Daylight Time)","Mozilla/5.0 (Windows NT 6.3; Win64; x64) AppleWebKit/537.36 (KHTML, like Gecko) Chrome/85.0.4183.102 Safari/537.36",146,"[0.9, 0.5, 0.1]","[0.8, 0.4, 0.2]","[u'blue', u'black', u'red']","[u'left', u'middle', u'right']","[0.8, 0.4, 0.2]","[u'high', u'medium', u'low']","blue",49,"left","high","True","False",754,6500,NA
"A3OGOTSOMQTDMN","Sun Oct 04 2020 19:05:06 GMT-0700 (Pacific Daylight Time)","Sun Oct 04 2020 19:14:24 GMT-0700 (Pacific Daylight Time)","Mozilla/5.0 (Windows NT 6.3; Win64; x64) AppleWebKit/537.36 (KHTML, like Gecko) Chrome/85.0.4183.102 Safari/537.36",147,"[0.9, 0.5, 0.1]","[0.8, 0.4, 0.2]","[u'blue', u'black', u'red']","[u'left', u'middle', u'right']","[0.8, 0.4, 0.2]","[u'high', u'medium', u'low']","blue",49,"left","high","True","False",443,6600,NA
"A3OGOTSOMQTDMN","Sun Oct 04 2020 19:05:06 GMT-0700 (Pacific Daylight Time)","Sun Oct 04 2020 19:14:24 GMT-0700 (Pacific Daylight Time)","Mozilla/5.0 (Windows NT 6.3; Win64; x64) AppleWebKit/537.36 (KHTML, like Gecko) Chrome/85.0.4183.102 Safari/537.36",148,"[0.9, 0.5, 0.1]","[0.8, 0.4, 0.2]","[u'blue', u'black', u'red']","[u'left', u'middle', u'right']","[0.8, 0.4, 0.2]","[u'high', u'medium', u'low']","blue",49,"left","high","True","False",766,6700,NA
"A3OGOTSOMQTDMN","Sun Oct 04 2020 19:05:06 GMT-0700 (Pacific Daylight Time)","Sun Oct 04 2020 19:14:24 GMT-0700 (Pacific Daylight Time)","Mozilla/5.0 (Windows NT 6.3; Win64; x64) AppleWebKit/537.36 (KHTML, like Gecko) Chrome/85.0.4183.102 Safari/537.36",149,"[0.9, 0.5, 0.1]","[0.8, 0.4, 0.2]","[u'blue', u'black', u'red']","[u'left', u'middle', u'right']","[0.8, 0.4, 0.2]","[u'high', u'medium', u'low']","blue",49,"left","high","True","False",189,6800,NA
"A3OGOTSOMQTDMN","Sun Oct 04 2020 19:05:06 GMT-0700 (Pacific Daylight Time)","Sun Oct 04 2020 19:14:24 GMT-0700 (Pacific Daylight Time)","Mozilla/5.0 (Windows NT 6.3; Win64; x64) AppleWebKit/537.36 (KHTML, like Gecko) Chrome/85.0.4183.102 Safari/537.36",150,"[0.9, 0.5, 0.1]","[0.8, 0.4, 0.2]","[u'blue', u'black', u'red']","[u'left', u'middle', u'right']","[0.8, 0.4, 0.2]","[u'high', u'medium', u'low']","blue",49,"left","high","True","False",658,6900,NA
"A3OGOTSOMQTDMN","Sun Oct 04 2020 19:05:06 GMT-0700 (Pacific Daylight Time)","Sun Oct 04 2020 19:14:24 GMT-0700 (Pacific Daylight Time)","Mozilla/5.0 (Windows NT 6.3; Win64; x64) AppleWebKit/537.36 (KHTML, like Gecko) Chrome/85.0.4183.102 Safari/537.36",151,"[0.9, 0.5, 0.1]","[0.8, 0.4, 0.2]","[u'blue', u'black', u'red']","[u'left', u'middle', u'right']","[0.8, 0.4, 0.2]","[u'high', u'medium', u'low']","blue",49,"left","high","True","False",217,7000,NA
"A3OGOTSOMQTDMN","Sun Oct 04 2020 19:05:06 GMT-0700 (Pacific Daylight Time)","Sun Oct 04 2020 19:14:24 GMT-0700 (Pacific Daylight Time)","Mozilla/5.0 (Windows NT 6.3; Win64; x64) AppleWebKit/537.36 (KHTML, like Gecko) Chrome/85.0.4183.102 Safari/537.36",152,"[0.9, 0.5, 0.1]","[0.8, 0.4, 0.2]","[u'blue', u'black', u'red']","[u'left', u'middle', u'right']","[0.8, 0.4, 0.2]","[u'high', u'medium', u'low']","blue",49,"left","high","True","False",268,7100,NA
"A3OGOTSOMQTDMN","Sun Oct 04 2020 19:05:06 GMT-0700 (Pacific Daylight Time)","Sun Oct 04 2020 19:14:24 GMT-0700 (Pacific Daylight Time)","Mozilla/5.0 (Windows NT 6.3; Win64; x64) AppleWebKit/537.36 (KHTML, like Gecko) Chrome/85.0.4183.102 Safari/537.36",153,"[0.9, 0.5, 0.1]","[0.8, 0.4, 0.2]","[u'blue', u'black', u'red']","[u'left', u'middle', u'right']","[0.8, 0.4, 0.2]","[u'high', u'medium', u'low']","blue",49,"left","high","True","False",670,7200,NA
"A3OGOTSOMQTDMN","Sun Oct 04 2020 19:05:06 GMT-0700 (Pacific Daylight Time)","Sun Oct 04 2020 19:14:24 GMT-0700 (Pacific Daylight Time)","Mozilla/5.0 (Windows NT 6.3; Win64; x64) AppleWebKit/537.36 (KHTML, like Gecko) Chrome/85.0.4183.102 Safari/537.36",154,"[0.9, 0.5, 0.1]","[0.8, 0.4, 0.2]","[u'blue', u'black', u'red']","[u'left', u'middle', u'right']","[0.8, 0.4, 0.2]","[u'high', u'medium', u'low']","blue",49,"left","high","False","True",789,7150,NA
"A3OGOTSOMQTDMN","Sun Oct 04 2020 19:05:06 GMT-0700 (Pacific Daylight Time)","Sun Oct 04 2020 19:14:24 GMT-0700 (Pacific Daylight Time)","Mozilla/5.0 (Windows NT 6.3; Win64; x64) AppleWebKit/537.36 (KHTML, like Gecko) Chrome/85.0.4183.102 Safari/537.36",155,"[0.9, 0.5, 0.1]","[0.8, 0.4, 0.2]","[u'blue', u'black', u'red']","[u'left', u'middle', u'right']","[0.8, 0.4, 0.2]","[u'medium', u'low', u'high']","black",50,"middle","low","False","False",776,7100,NA
"A3OGOTSOMQTDMN","Sun Oct 04 2020 19:05:06 GMT-0700 (Pacific Daylight Time)","Sun Oct 04 2020 19:14:24 GMT-0700 (Pacific Daylight Time)","Mozilla/5.0 (Windows NT 6.3; Win64; x64) AppleWebKit/537.36 (KHTML, like Gecko) Chrome/85.0.4183.102 Safari/537.36",156,"[0.9, 0.5, 0.1]","[0.8, 0.4, 0.2]","[u'blue', u'black', u'red']","[u'left', u'middle', u'right']","[0.8, 0.4, 0.2]","[u'medium', u'low', u'high']","red",51,"right","high","True","False",718,7200,NA
"A3OGOTSOMQTDMN","Sun Oct 04 2020 19:05:06 GMT-0700 (Pacific Daylight Time)","Sun Oct 04 2020 19:14:24 GMT-0700 (Pacific Daylight Time)","Mozilla/5.0 (Windows NT 6.3; Win64; x64) AppleWebKit/537.36 (KHTML, like Gecko) Chrome/85.0.4183.102 Safari/537.36",157,"[0.9, 0.5, 0.1]","[0.8, 0.4, 0.2]","[u'blue', u'black', u'red']","[u'left', u'middle', u'right']","[0.8, 0.4, 0.2]","[u'medium', u'low', u'high']","red",51,"right","high","True","False",635,7300,NA
"A3OGOTSOMQTDMN","Sun Oct 04 2020 19:05:06 GMT-0700 (Pacific Daylight Time)","Sun Oct 04 2020 19:14:24 GMT-0700 (Pacific Daylight Time)","Mozilla/5.0 (Windows NT 6.3; Win64; x64) AppleWebKit/537.36 (KHTML, like Gecko) Chrome/85.0.4183.102 Safari/537.36",158,"[0.9, 0.5, 0.1]","[0.8, 0.4, 0.2]","[u'blue', u'black', u'red']","[u'left', u'middle', u'right']","[0.8, 0.4, 0.2]","[u'medium', u'low', u'high']","red",51,"right","high","True","False",4012,7400,NA
"A3OGOTSOMQTDMN","Sun Oct 04 2020 19:05:06 GMT-0700 (Pacific Daylight Time)","Sun Oct 04 2020 19:14:24 GMT-0700 (Pacific Daylight Time)","Mozilla/5.0 (Windows NT 6.3; Win64; x64) AppleWebKit/537.36 (KHTML, like Gecko) Chrome/85.0.4183.102 Safari/537.36",159,"[0.9, 0.5, 0.1]","[0.8, 0.4, 0.2]","[u'blue', u'black', u'red']","[u'left', u'middle', u'right']","[0.8, 0.4, 0.2]","[u'medium', u'low', u'high']","red",51,"right","high","True","False",679,7500,NA
"A3OGOTSOMQTDMN","Sun Oct 04 2020 19:05:06 GMT-0700 (Pacific Daylight Time)","Sun Oct 04 2020 19:14:24 GMT-0700 (Pacific Daylight Time)","Mozilla/5.0 (Windows NT 6.3; Win64; x64) AppleWebKit/537.36 (KHTML, like Gecko) Chrome/85.0.4183.102 Safari/537.36",160,"[0.9, 0.5, 0.1]","[0.8, 0.4, 0.2]","[u'blue', u'black', u'red']","[u'left', u'middle', u'right']","[0.8, 0.4, 0.2]","[u'medium', u'low', u'high']","red",51,"right","high","True","False",630,7600,NA
