"src_subject_id","start_time","end_time","browser","index","first_half_probabilities","second_half_probabilities","deck_color","deck_position","deck_probabilities","deck_contingencies","response_color","key_press","response_position","response_probability","reward_type","trial_type","rt","reward_tally","exclusion_reason"
"AKC9H6IX5YCG4","Mon Oct 05 2020 11:34:20 GMT-0400 (Eastern Daylight Time)","Mon Oct 05 2020 11:41:36 GMT-0400 (Eastern Daylight Time)","Mozilla/5.0 (Windows NT 10.0; Win64; x64) AppleWebKit/537.36 (KHTML, like Gecko) Chrome/85.0.4183.121 Safari/537.36",1,"[0.9, 0.5, 0.1]","[0.8, 0.4, 0.2]","[u'blue', u'black', u'red']","[u'left', u'middle', u'right']","[0.9, 0.5, 0.1]","[u'high', u'low', u'medium']","black",50,"middle","low","False","False",994,-50,NA
"AKC9H6IX5YCG4","Mon Oct 05 2020 11:34:20 GMT-0400 (Eastern Daylight Time)","Mon Oct 05 2020 11:41:36 GMT-0400 (Eastern Daylight Time)","Mozilla/5.0 (Windows NT 10.0; Win64; x64) AppleWebKit/537.36 (KHTML, like Gecko) Chrome/85.0.4183.121 Safari/537.36",2,"[0.9, 0.5, 0.1]","[0.8, 0.4, 0.2]","[u'blue', u'black', u'red']","[u'left', u'middle', u'right']","[0.9, 0.5, 0.1]","[u'high', u'low', u'medium']","blue",49,"left","high","True","False",435,50,NA
"AKC9H6IX5YCG4","Mon Oct 05 2020 11:34:20 GMT-0400 (Eastern Daylight Time)","Mon Oct 05 2020 11:41:36 GMT-0400 (Eastern Daylight Time)","Mozilla/5.0 (Windows NT 10.0; Win64; x64) AppleWebKit/537.36 (KHTML, like Gecko) Chrome/85.0.4183.121 Safari/537.36",3,"[0.9, 0.5, 0.1]","[0.8, 0.4, 0.2]","[u'blue', u'black', u'red']","[u'left', u'middle', u'right']","[0.9, 0.5, 0.1]","[u'high', u'low', u'medium']","blue",49,"left","high","True","False",468,150,NA
"AKC9H6IX5YCG4","Mon Oct 05 2020 11:34:20 GMT-0400 (Eastern Daylight Time)","Mon Oct 05 2020 11:41:36 GMT-0400 (Eastern Daylight Time)","Mozilla/5.0 (Windows NT 10.0; Win64; x64) AppleWebKit/537.36 (KHTML, like Gecko) Chrome/85.0.4183.121 Safari/537.36",4,"[0.9, 0.5, 0.1]","[0.8, 0.4, 0.2]","[u'blue', u'black', u'red']","[u'left', u'middle', u'right']","[0.9, 0.5, 0.1]","[u'high', u'low', u'medium']","blue",49,"left","high","True","False",547,250,NA
"AKC9H6IX5YCG4","Mon Oct 05 2020 11:34:20 GMT-0400 (Eastern Daylight Time)","Mon Oct 05 2020 11:41:36 GMT-0400 (Eastern Daylight Time)","Mozilla/5.0 (Windows NT 10.0; Win64; x64) AppleWebKit/537.36 (KHTML, like Gecko) Chrome/85.0.4183.121 Safari/537.36",5,"[0.9, 0.5, 0.1]","[0.8, 0.4, 0.2]","[u'blue', u'black', u'red']","[u'left', u'middle', u'right']","[0.9, 0.5, 0.1]","[u'high', u'low', u'medium']","blue",49,"left","high","True","False",435,350,NA
"AKC9H6IX5YCG4","Mon Oct 05 2020 11:34:20 GMT-0400 (Eastern Daylight Time)","Mon Oct 05 2020 11:41:36 GMT-0400 (Eastern Daylight Time)","Mozilla/5.0 (Windows NT 10.0; Win64; x64) AppleWebKit/537.36 (KHTML, like Gecko) Chrome/85.0.4183.121 Safari/537.36",6,"[0.9, 0.5, 0.1]","[0.8, 0.4, 0.2]","[u'blue', u'black', u'red']","[u'left', u'middle', u'right']","[0.9, 0.5, 0.1]","[u'high', u'low', u'medium']","blue",49,"left","high","True","False",427,450,NA
"AKC9H6IX5YCG4","Mon Oct 05 2020 11:34:20 GMT-0400 (Eastern Daylight Time)","Mon Oct 05 2020 11:41:36 GMT-0400 (Eastern Daylight Time)","Mozilla/5.0 (Windows NT 10.0; Win64; x64) AppleWebKit/537.36 (KHTML, like Gecko) Chrome/85.0.4183.121 Safari/537.36",7,"[0.9, 0.5, 0.1]","[0.8, 0.4, 0.2]","[u'blue', u'black', u'red']","[u'left', u'middle', u'right']","[0.9, 0.5, 0.1]","[u'high', u'low', u'medium']","blue",49,"left","high","True","False",514,550,NA
"AKC9H6IX5YCG4","Mon Oct 05 2020 11:34:20 GMT-0400 (Eastern Daylight Time)","Mon Oct 05 2020 11:41:36 GMT-0400 (Eastern Daylight Time)","Mozilla/5.0 (Windows NT 10.0; Win64; x64) AppleWebKit/537.36 (KHTML, like Gecko) Chrome/85.0.4183.121 Safari/537.36",8,"[0.9, 0.5, 0.1]","[0.8, 0.4, 0.2]","[u'blue', u'black', u'red']","[u'left', u'middle', u'right']","[0.9, 0.5, 0.1]","[u'high', u'low', u'medium']","blue",49,"left","high","True","False",475,650,NA
"AKC9H6IX5YCG4","Mon Oct 05 2020 11:34:20 GMT-0400 (Eastern Daylight Time)","Mon Oct 05 2020 11:41:36 GMT-0400 (Eastern Daylight Time)","Mozilla/5.0 (Windows NT 10.0; Win64; x64) AppleWebKit/537.36 (KHTML, like Gecko) Chrome/85.0.4183.121 Safari/537.36",9,"[0.9, 0.5, 0.1]","[0.8, 0.4, 0.2]","[u'blue', u'black', u'red']","[u'left', u'middle', u'right']","[0.9, 0.5, 0.1]","[u'high', u'low', u'medium']","blue",49,"left","high","True","False",475,750,NA
"AKC9H6IX5YCG4","Mon Oct 05 2020 11:34:20 GMT-0400 (Eastern Daylight Time)","Mon Oct 05 2020 11:41:36 GMT-0400 (Eastern Daylight Time)","Mozilla/5.0 (Windows NT 10.0; Win64; x64) AppleWebKit/537.36 (KHTML, like Gecko) Chrome/85.0.4183.121 Safari/537.36",10,"[0.9, 0.5, 0.1]","[0.8, 0.4, 0.2]","[u'blue', u'black', u'red']","[u'left', u'middle', u'right']","[0.9, 0.5, 0.1]","[u'high', u'low', u'medium']","red",51,"right","medium","True","False",675,850,NA
"AKC9H6IX5YCG4","Mon Oct 05 2020 11:34:20 GMT-0400 (Eastern Daylight Time)","Mon Oct 05 2020 11:41:36 GMT-0400 (Eastern Daylight Time)","Mozilla/5.0 (Windows NT 10.0; Win64; x64) AppleWebKit/537.36 (KHTML, like Gecko) Chrome/85.0.4183.121 Safari/537.36",11,"[0.9, 0.5, 0.1]","[0.8, 0.4, 0.2]","[u'blue', u'black', u'red']","[u'left', u'middle', u'right']","[0.9, 0.5, 0.1]","[u'high', u'low', u'medium']","blue",49,"left","high","True","True",453,950,NA
"AKC9H6IX5YCG4","Mon Oct 05 2020 11:34:20 GMT-0400 (Eastern Daylight Time)","Mon Oct 05 2020 11:41:36 GMT-0400 (Eastern Daylight Time)","Mozilla/5.0 (Windows NT 10.0; Win64; x64) AppleWebKit/537.36 (KHTML, like Gecko) Chrome/85.0.4183.121 Safari/537.36",12,"[0.9, 0.5, 0.1]","[0.8, 0.4, 0.2]","[u'blue', u'black', u'red']","[u'left', u'middle', u'right']","[0.9, 0.5, 0.1]","[u'medium', u'high', u'low']","blue",49,"left","medium","False","False",553,900,NA
"AKC9H6IX5YCG4","Mon Oct 05 2020 11:34:20 GMT-0400 (Eastern Daylight Time)","Mon Oct 05 2020 11:41:36 GMT-0400 (Eastern Daylight Time)","Mozilla/5.0 (Windows NT 10.0; Win64; x64) AppleWebKit/537.36 (KHTML, like Gecko) Chrome/85.0.4183.121 Safari/537.36",13,"[0.9, 0.5, 0.1]","[0.8, 0.4, 0.2]","[u'blue', u'black', u'red']","[u'left', u'middle', u'right']","[0.9, 0.5, 0.1]","[u'medium', u'high', u'low']","red",51,"right","low","True","False",476,1000,NA
"AKC9H6IX5YCG4","Mon Oct 05 2020 11:34:20 GMT-0400 (Eastern Daylight Time)","Mon Oct 05 2020 11:41:36 GMT-0400 (Eastern Daylight Time)","Mozilla/5.0 (Windows NT 10.0; Win64; x64) AppleWebKit/537.36 (KHTML, like Gecko) Chrome/85.0.4183.121 Safari/537.36",14,"[0.9, 0.5, 0.1]","[0.8, 0.4, 0.2]","[u'blue', u'black', u'red']","[u'left', u'middle', u'right']","[0.9, 0.5, 0.1]","[u'medium', u'high', u'low']","red",51,"right","low","False","False",539,950,NA
"AKC9H6IX5YCG4","Mon Oct 05 2020 11:34:20 GMT-0400 (Eastern Daylight Time)","Mon Oct 05 2020 11:41:36 GMT-0400 (Eastern Daylight Time)","Mozilla/5.0 (Windows NT 10.0; Win64; x64) AppleWebKit/537.36 (KHTML, like Gecko) Chrome/85.0.4183.121 Safari/537.36",15,"[0.9, 0.5, 0.1]","[0.8, 0.4, 0.2]","[u'blue', u'black', u'red']","[u'left', u'middle', u'right']","[0.9, 0.5, 0.1]","[u'medium', u'high', u'low']","blue",49,"left","medium","True","False",556,1050,NA
"AKC9H6IX5YCG4","Mon Oct 05 2020 11:34:20 GMT-0400 (Eastern Daylight Time)","Mon Oct 05 2020 11:41:36 GMT-0400 (Eastern Daylight Time)","Mozilla/5.0 (Windows NT 10.0; Win64; x64) AppleWebKit/537.36 (KHTML, like Gecko) Chrome/85.0.4183.121 Safari/537.36",16,"[0.9, 0.5, 0.1]","[0.8, 0.4, 0.2]","[u'blue', u'black', u'red']","[u'left', u'middle', u'right']","[0.9, 0.5, 0.1]","[u'medium', u'high', u'low']","blue",49,"left","medium","True","False",581,1150,NA
"AKC9H6IX5YCG4","Mon Oct 05 2020 11:34:20 GMT-0400 (Eastern Daylight Time)","Mon Oct 05 2020 11:41:36 GMT-0400 (Eastern Daylight Time)","Mozilla/5.0 (Windows NT 10.0; Win64; x64) AppleWebKit/537.36 (KHTML, like Gecko) Chrome/85.0.4183.121 Safari/537.36",17,"[0.9, 0.5, 0.1]","[0.8, 0.4, 0.2]","[u'blue', u'black', u'red']","[u'left', u'middle', u'right']","[0.9, 0.5, 0.1]","[u'medium', u'high', u'low']","blue",49,"left","medium","False","False",602,1100,NA
"AKC9H6IX5YCG4","Mon Oct 05 2020 11:34:20 GMT-0400 (Eastern Daylight Time)","Mon Oct 05 2020 11:41:36 GMT-0400 (Eastern Daylight Time)","Mozilla/5.0 (Windows NT 10.0; Win64; x64) AppleWebKit/537.36 (KHTML, like Gecko) Chrome/85.0.4183.121 Safari/537.36",18,"[0.9, 0.5, 0.1]","[0.8, 0.4, 0.2]","[u'blue', u'black', u'red']","[u'left', u'middle', u'right']","[0.9, 0.5, 0.1]","[u'medium', u'high', u'low']","blue",49,"left","medium","False","False",579,1050,NA
"AKC9H6IX5YCG4","Mon Oct 05 2020 11:34:20 GMT-0400 (Eastern Daylight Time)","Mon Oct 05 2020 11:41:36 GMT-0400 (Eastern Daylight Time)","Mozilla/5.0 (Windows NT 10.0; Win64; x64) AppleWebKit/537.36 (KHTML, like Gecko) Chrome/85.0.4183.121 Safari/537.36",19,"[0.9, 0.5, 0.1]","[0.8, 0.4, 0.2]","[u'blue', u'black', u'red']","[u'left', u'middle', u'right']","[0.9, 0.5, 0.1]","[u'medium', u'high', u'low']","red",51,"right","low","False","False",506,1000,NA
"AKC9H6IX5YCG4","Mon Oct 05 2020 11:34:20 GMT-0400 (Eastern Daylight Time)","Mon Oct 05 2020 11:41:36 GMT-0400 (Eastern Daylight Time)","Mozilla/5.0 (Windows NT 10.0; Win64; x64) AppleWebKit/537.36 (KHTML, like Gecko) Chrome/85.0.4183.121 Safari/537.36",20,"[0.9, 0.5, 0.1]","[0.8, 0.4, 0.2]","[u'blue', u'black', u'red']","[u'left', u'middle', u'right']","[0.9, 0.5, 0.1]","[u'medium', u'high', u'low']","black",50,"middle","high","True","False",548,1100,NA
"AKC9H6IX5YCG4","Mon Oct 05 2020 11:34:20 GMT-0400 (Eastern Daylight Time)","Mon Oct 05 2020 11:41:36 GMT-0400 (Eastern Daylight Time)","Mozilla/5.0 (Windows NT 10.0; Win64; x64) AppleWebKit/537.36 (KHTML, like Gecko) Chrome/85.0.4183.121 Safari/537.36",21,"[0.9, 0.5, 0.1]","[0.8, 0.4, 0.2]","[u'blue', u'black', u'red']","[u'left', u'middle', u'right']","[0.9, 0.5, 0.1]","[u'medium', u'high', u'low']","black",50,"middle","high","True","False",580,1200,NA
"AKC9H6IX5YCG4","Mon Oct 05 2020 11:34:20 GMT-0400 (Eastern Daylight Time)","Mon Oct 05 2020 11:41:36 GMT-0400 (Eastern Daylight Time)","Mozilla/5.0 (Windows NT 10.0; Win64; x64) AppleWebKit/537.36 (KHTML, like Gecko) Chrome/85.0.4183.121 Safari/537.36",22,"[0.9, 0.5, 0.1]","[0.8, 0.4, 0.2]","[u'blue', u'black', u'red']","[u'left', u'middle', u'right']","[0.9, 0.5, 0.1]","[u'medium', u'high', u'low']","black",50,"middle","high","True","False",547,1300,NA
"AKC9H6IX5YCG4","Mon Oct 05 2020 11:34:20 GMT-0400 (Eastern Daylight Time)","Mon Oct 05 2020 11:41:36 GMT-0400 (Eastern Daylight Time)","Mozilla/5.0 (Windows NT 10.0; Win64; x64) AppleWebKit/537.36 (KHTML, like Gecko) Chrome/85.0.4183.121 Safari/537.36",23,"[0.9, 0.5, 0.1]","[0.8, 0.4, 0.2]","[u'blue', u'black', u'red']","[u'left', u'middle', u'right']","[0.9, 0.5, 0.1]","[u'medium', u'high', u'low']","black",50,"middle","high","True","False",403,1400,NA
"AKC9H6IX5YCG4","Mon Oct 05 2020 11:34:20 GMT-0400 (Eastern Daylight Time)","Mon Oct 05 2020 11:41:36 GMT-0400 (Eastern Daylight Time)","Mozilla/5.0 (Windows NT 10.0; Win64; x64) AppleWebKit/537.36 (KHTML, like Gecko) Chrome/85.0.4183.121 Safari/537.36",24,"[0.9, 0.5, 0.1]","[0.8, 0.4, 0.2]","[u'blue', u'black', u'red']","[u'left', u'middle', u'right']","[0.9, 0.5, 0.1]","[u'medium', u'high', u'low']","black",50,"middle","high","True","False",370,1500,NA
"AKC9H6IX5YCG4","Mon Oct 05 2020 11:34:20 GMT-0400 (Eastern Daylight Time)","Mon Oct 05 2020 11:41:36 GMT-0400 (Eastern Daylight Time)","Mozilla/5.0 (Windows NT 10.0; Win64; x64) AppleWebKit/537.36 (KHTML, like Gecko) Chrome/85.0.4183.121 Safari/537.36",25,"[0.9, 0.5, 0.1]","[0.8, 0.4, 0.2]","[u'blue', u'black', u'red']","[u'left', u'middle', u'right']","[0.9, 0.5, 0.1]","[u'medium', u'high', u'low']","black",50,"middle","high","True","False",339,1600,NA
"AKC9H6IX5YCG4","Mon Oct 05 2020 11:34:20 GMT-0400 (Eastern Daylight Time)","Mon Oct 05 2020 11:41:36 GMT-0400 (Eastern Daylight Time)","Mozilla/5.0 (Windows NT 10.0; Win64; x64) AppleWebKit/537.36 (KHTML, like Gecko) Chrome/85.0.4183.121 Safari/537.36",26,"[0.9, 0.5, 0.1]","[0.8, 0.4, 0.2]","[u'blue', u'black', u'red']","[u'left', u'middle', u'right']","[0.9, 0.5, 0.1]","[u'medium', u'high', u'low']","black",50,"middle","high","True","False",443,1700,NA
"AKC9H6IX5YCG4","Mon Oct 05 2020 11:34:20 GMT-0400 (Eastern Daylight Time)","Mon Oct 05 2020 11:41:36 GMT-0400 (Eastern Daylight Time)","Mozilla/5.0 (Windows NT 10.0; Win64; x64) AppleWebKit/537.36 (KHTML, like Gecko) Chrome/85.0.4183.121 Safari/537.36",27,"[0.9, 0.5, 0.1]","[0.8, 0.4, 0.2]","[u'blue', u'black', u'red']","[u'left', u'middle', u'right']","[0.9, 0.5, 0.1]","[u'medium', u'high', u'low']","black",50,"middle","high","True","False",435,1800,NA
"AKC9H6IX5YCG4","Mon Oct 05 2020 11:34:20 GMT-0400 (Eastern Daylight Time)","Mon Oct 05 2020 11:41:36 GMT-0400 (Eastern Daylight Time)","Mozilla/5.0 (Windows NT 10.0; Win64; x64) AppleWebKit/537.36 (KHTML, like Gecko) Chrome/85.0.4183.121 Safari/537.36",28,"[0.9, 0.5, 0.1]","[0.8, 0.4, 0.2]","[u'blue', u'black', u'red']","[u'left', u'middle', u'right']","[0.9, 0.5, 0.1]","[u'medium', u'high', u'low']","black",50,"middle","high","True","True",522,1900,NA
"AKC9H6IX5YCG4","Mon Oct 05 2020 11:34:20 GMT-0400 (Eastern Daylight Time)","Mon Oct 05 2020 11:41:36 GMT-0400 (Eastern Daylight Time)","Mozilla/5.0 (Windows NT 10.0; Win64; x64) AppleWebKit/537.36 (KHTML, like Gecko) Chrome/85.0.4183.121 Safari/537.36",29,"[0.9, 0.5, 0.1]","[0.8, 0.4, 0.2]","[u'blue', u'black', u'red']","[u'left', u'middle', u'right']","[0.9, 0.5, 0.1]","[u'medium', u'low', u'high']","black",50,"middle","low","False","False",507,1850,NA
"AKC9H6IX5YCG4","Mon Oct 05 2020 11:34:20 GMT-0400 (Eastern Daylight Time)","Mon Oct 05 2020 11:41:36 GMT-0400 (Eastern Daylight Time)","Mozilla/5.0 (Windows NT 10.0; Win64; x64) AppleWebKit/537.36 (KHTML, like Gecko) Chrome/85.0.4183.121 Safari/537.36",30,"[0.9, 0.5, 0.1]","[0.8, 0.4, 0.2]","[u'blue', u'black', u'red']","[u'left', u'middle', u'right']","[0.9, 0.5, 0.1]","[u'medium', u'low', u'high']","black",50,"middle","low","False","False",443,1800,NA
"AKC9H6IX5YCG4","Mon Oct 05 2020 11:34:20 GMT-0400 (Eastern Daylight Time)","Mon Oct 05 2020 11:41:36 GMT-0400 (Eastern Daylight Time)","Mozilla/5.0 (Windows NT 10.0; Win64; x64) AppleWebKit/537.36 (KHTML, like Gecko) Chrome/85.0.4183.121 Safari/537.36",31,"[0.9, 0.5, 0.1]","[0.8, 0.4, 0.2]","[u'blue', u'black', u'red']","[u'left', u'middle', u'right']","[0.9, 0.5, 0.1]","[u'medium', u'low', u'high']","blue",49,"left","medium","False","False",491,1750,NA
"AKC9H6IX5YCG4","Mon Oct 05 2020 11:34:20 GMT-0400 (Eastern Daylight Time)","Mon Oct 05 2020 11:41:36 GMT-0400 (Eastern Daylight Time)","Mozilla/5.0 (Windows NT 10.0; Win64; x64) AppleWebKit/537.36 (KHTML, like Gecko) Chrome/85.0.4183.121 Safari/537.36",32,"[0.9, 0.5, 0.1]","[0.8, 0.4, 0.2]","[u'blue', u'black', u'red']","[u'left', u'middle', u'right']","[0.9, 0.5, 0.1]","[u'medium', u'low', u'high']","red",51,"right","high","True","False",500,1850,NA
"AKC9H6IX5YCG4","Mon Oct 05 2020 11:34:20 GMT-0400 (Eastern Daylight Time)","Mon Oct 05 2020 11:41:36 GMT-0400 (Eastern Daylight Time)","Mozilla/5.0 (Windows NT 10.0; Win64; x64) AppleWebKit/537.36 (KHTML, like Gecko) Chrome/85.0.4183.121 Safari/537.36",33,"[0.9, 0.5, 0.1]","[0.8, 0.4, 0.2]","[u'blue', u'black', u'red']","[u'left', u'middle', u'right']","[0.9, 0.5, 0.1]","[u'medium', u'low', u'high']","red",51,"right","high","True","False",388,1950,NA
"AKC9H6IX5YCG4","Mon Oct 05 2020 11:34:20 GMT-0400 (Eastern Daylight Time)","Mon Oct 05 2020 11:41:36 GMT-0400 (Eastern Daylight Time)","Mozilla/5.0 (Windows NT 10.0; Win64; x64) AppleWebKit/537.36 (KHTML, like Gecko) Chrome/85.0.4183.121 Safari/537.36",34,"[0.9, 0.5, 0.1]","[0.8, 0.4, 0.2]","[u'blue', u'black', u'red']","[u'left', u'middle', u'right']","[0.9, 0.5, 0.1]","[u'medium', u'low', u'high']","red",51,"right","high","False","False",314,1900,NA
"AKC9H6IX5YCG4","Mon Oct 05 2020 11:34:20 GMT-0400 (Eastern Daylight Time)","Mon Oct 05 2020 11:41:36 GMT-0400 (Eastern Daylight Time)","Mozilla/5.0 (Windows NT 10.0; Win64; x64) AppleWebKit/537.36 (KHTML, like Gecko) Chrome/85.0.4183.121 Safari/537.36",35,"[0.9, 0.5, 0.1]","[0.8, 0.4, 0.2]","[u'blue', u'black', u'red']","[u'left', u'middle', u'right']","[0.9, 0.5, 0.1]","[u'medium', u'low', u'high']","red",51,"right","high","False","False",307,1850,NA
"AKC9H6IX5YCG4","Mon Oct 05 2020 11:34:20 GMT-0400 (Eastern Daylight Time)","Mon Oct 05 2020 11:41:36 GMT-0400 (Eastern Daylight Time)","Mozilla/5.0 (Windows NT 10.0; Win64; x64) AppleWebKit/537.36 (KHTML, like Gecko) Chrome/85.0.4183.121 Safari/537.36",36,"[0.9, 0.5, 0.1]","[0.8, 0.4, 0.2]","[u'blue', u'black', u'red']","[u'left', u'middle', u'right']","[0.9, 0.5, 0.1]","[u'medium', u'low', u'high']","blue",49,"left","medium","False","False",338,1800,NA
"AKC9H6IX5YCG4","Mon Oct 05 2020 11:34:20 GMT-0400 (Eastern Daylight Time)","Mon Oct 05 2020 11:41:36 GMT-0400 (Eastern Daylight Time)","Mozilla/5.0 (Windows NT 10.0; Win64; x64) AppleWebKit/537.36 (KHTML, like Gecko) Chrome/85.0.4183.121 Safari/537.36",37,"[0.9, 0.5, 0.1]","[0.8, 0.4, 0.2]","[u'blue', u'black', u'red']","[u'left', u'middle', u'right']","[0.9, 0.5, 0.1]","[u'medium', u'low', u'high']","blue",49,"left","medium","False","False",331,1750,NA
"AKC9H6IX5YCG4","Mon Oct 05 2020 11:34:20 GMT-0400 (Eastern Daylight Time)","Mon Oct 05 2020 11:41:36 GMT-0400 (Eastern Daylight Time)","Mozilla/5.0 (Windows NT 10.0; Win64; x64) AppleWebKit/537.36 (KHTML, like Gecko) Chrome/85.0.4183.121 Safari/537.36",38,"[0.9, 0.5, 0.1]","[0.8, 0.4, 0.2]","[u'blue', u'black', u'red']","[u'left', u'middle', u'right']","[0.9, 0.5, 0.1]","[u'medium', u'low', u'high']","black",50,"middle","low","False","False",283,1700,NA
"AKC9H6IX5YCG4","Mon Oct 05 2020 11:34:20 GMT-0400 (Eastern Daylight Time)","Mon Oct 05 2020 11:41:36 GMT-0400 (Eastern Daylight Time)","Mozilla/5.0 (Windows NT 10.0; Win64; x64) AppleWebKit/537.36 (KHTML, like Gecko) Chrome/85.0.4183.121 Safari/537.36",39,"[0.9, 0.5, 0.1]","[0.8, 0.4, 0.2]","[u'blue', u'black', u'red']","[u'left', u'middle', u'right']","[0.9, 0.5, 0.1]","[u'medium', u'low', u'high']","red",51,"right","high","True","False",268,1800,NA
"AKC9H6IX5YCG4","Mon Oct 05 2020 11:34:20 GMT-0400 (Eastern Daylight Time)","Mon Oct 05 2020 11:41:36 GMT-0400 (Eastern Daylight Time)","Mozilla/5.0 (Windows NT 10.0; Win64; x64) AppleWebKit/537.36 (KHTML, like Gecko) Chrome/85.0.4183.121 Safari/537.36",40,"[0.9, 0.5, 0.1]","[0.8, 0.4, 0.2]","[u'blue', u'black', u'red']","[u'left', u'middle', u'right']","[0.9, 0.5, 0.1]","[u'medium', u'low', u'high']","red",51,"right","high","True","False",259,1900,NA
"AKC9H6IX5YCG4","Mon Oct 05 2020 11:34:20 GMT-0400 (Eastern Daylight Time)","Mon Oct 05 2020 11:41:36 GMT-0400 (Eastern Daylight Time)","Mozilla/5.0 (Windows NT 10.0; Win64; x64) AppleWebKit/537.36 (KHTML, like Gecko) Chrome/85.0.4183.121 Safari/537.36",41,"[0.9, 0.5, 0.1]","[0.8, 0.4, 0.2]","[u'blue', u'black', u'red']","[u'left', u'middle', u'right']","[0.9, 0.5, 0.1]","[u'medium', u'high', u'low']","red",51,"right","low","False","False",371,1850,NA
"AKC9H6IX5YCG4","Mon Oct 05 2020 11:34:20 GMT-0400 (Eastern Daylight Time)","Mon Oct 05 2020 11:41:36 GMT-0400 (Eastern Daylight Time)","Mozilla/5.0 (Windows NT 10.0; Win64; x64) AppleWebKit/537.36 (KHTML, like Gecko) Chrome/85.0.4183.121 Safari/537.36",42,"[0.9, 0.5, 0.1]","[0.8, 0.4, 0.2]","[u'blue', u'black', u'red']","[u'left', u'middle', u'right']","[0.9, 0.5, 0.1]","[u'medium', u'high', u'low']","black",50,"middle","high","True","False",316,1950,NA
"AKC9H6IX5YCG4","Mon Oct 05 2020 11:34:20 GMT-0400 (Eastern Daylight Time)","Mon Oct 05 2020 11:41:36 GMT-0400 (Eastern Daylight Time)","Mozilla/5.0 (Windows NT 10.0; Win64; x64) AppleWebKit/537.36 (KHTML, like Gecko) Chrome/85.0.4183.121 Safari/537.36",43,"[0.9, 0.5, 0.1]","[0.8, 0.4, 0.2]","[u'blue', u'black', u'red']","[u'left', u'middle', u'right']","[0.9, 0.5, 0.1]","[u'medium', u'high', u'low']","black",50,"middle","high","True","False",211,2050,NA
"AKC9H6IX5YCG4","Mon Oct 05 2020 11:34:20 GMT-0400 (Eastern Daylight Time)","Mon Oct 05 2020 11:41:36 GMT-0400 (Eastern Daylight Time)","Mozilla/5.0 (Windows NT 10.0; Win64; x64) AppleWebKit/537.36 (KHTML, like Gecko) Chrome/85.0.4183.121 Safari/537.36",44,"[0.9, 0.5, 0.1]","[0.8, 0.4, 0.2]","[u'blue', u'black', u'red']","[u'left', u'middle', u'right']","[0.9, 0.5, 0.1]","[u'medium', u'high', u'low']","black",50,"middle","high","True","False",236,2150,NA
"AKC9H6IX5YCG4","Mon Oct 05 2020 11:34:20 GMT-0400 (Eastern Daylight Time)","Mon Oct 05 2020 11:41:36 GMT-0400 (Eastern Daylight Time)","Mozilla/5.0 (Windows NT 10.0; Win64; x64) AppleWebKit/537.36 (KHTML, like Gecko) Chrome/85.0.4183.121 Safari/537.36",45,"[0.9, 0.5, 0.1]","[0.8, 0.4, 0.2]","[u'blue', u'black', u'red']","[u'left', u'middle', u'right']","[0.9, 0.5, 0.1]","[u'medium', u'high', u'low']","black",50,"middle","high","True","False",249,2250,NA
"AKC9H6IX5YCG4","Mon Oct 05 2020 11:34:20 GMT-0400 (Eastern Daylight Time)","Mon Oct 05 2020 11:41:36 GMT-0400 (Eastern Daylight Time)","Mozilla/5.0 (Windows NT 10.0; Win64; x64) AppleWebKit/537.36 (KHTML, like Gecko) Chrome/85.0.4183.121 Safari/537.36",46,"[0.9, 0.5, 0.1]","[0.8, 0.4, 0.2]","[u'blue', u'black', u'red']","[u'left', u'middle', u'right']","[0.9, 0.5, 0.1]","[u'medium', u'high', u'low']","black",50,"middle","high","True","False",299,2350,NA
"AKC9H6IX5YCG4","Mon Oct 05 2020 11:34:20 GMT-0400 (Eastern Daylight Time)","Mon Oct 05 2020 11:41:36 GMT-0400 (Eastern Daylight Time)","Mozilla/5.0 (Windows NT 10.0; Win64; x64) AppleWebKit/537.36 (KHTML, like Gecko) Chrome/85.0.4183.121 Safari/537.36",47,"[0.9, 0.5, 0.1]","[0.8, 0.4, 0.2]","[u'blue', u'black', u'red']","[u'left', u'middle', u'right']","[0.9, 0.5, 0.1]","[u'medium', u'high', u'low']","black",50,"middle","high","True","False",411,2450,NA
"AKC9H6IX5YCG4","Mon Oct 05 2020 11:34:20 GMT-0400 (Eastern Daylight Time)","Mon Oct 05 2020 11:41:36 GMT-0400 (Eastern Daylight Time)","Mozilla/5.0 (Windows NT 10.0; Win64; x64) AppleWebKit/537.36 (KHTML, like Gecko) Chrome/85.0.4183.121 Safari/537.36",48,"[0.9, 0.5, 0.1]","[0.8, 0.4, 0.2]","[u'blue', u'black', u'red']","[u'left', u'middle', u'right']","[0.9, 0.5, 0.1]","[u'medium', u'high', u'low']","black",50,"middle","high","True","False",275,2550,NA
"AKC9H6IX5YCG4","Mon Oct 05 2020 11:34:20 GMT-0400 (Eastern Daylight Time)","Mon Oct 05 2020 11:41:36 GMT-0400 (Eastern Daylight Time)","Mozilla/5.0 (Windows NT 10.0; Win64; x64) AppleWebKit/537.36 (KHTML, like Gecko) Chrome/85.0.4183.121 Safari/537.36",49,"[0.9, 0.5, 0.1]","[0.8, 0.4, 0.2]","[u'blue', u'black', u'red']","[u'left', u'middle', u'right']","[0.9, 0.5, 0.1]","[u'medium', u'high', u'low']","black",50,"middle","high","True","False",296,2650,NA
"AKC9H6IX5YCG4","Mon Oct 05 2020 11:34:20 GMT-0400 (Eastern Daylight Time)","Mon Oct 05 2020 11:41:36 GMT-0400 (Eastern Daylight Time)","Mozilla/5.0 (Windows NT 10.0; Win64; x64) AppleWebKit/537.36 (KHTML, like Gecko) Chrome/85.0.4183.121 Safari/537.36",50,"[0.9, 0.5, 0.1]","[0.8, 0.4, 0.2]","[u'blue', u'black', u'red']","[u'left', u'middle', u'right']","[0.9, 0.5, 0.1]","[u'medium', u'high', u'low']","black",50,"middle","high","True","True",300,2750,NA
"AKC9H6IX5YCG4","Mon Oct 05 2020 11:34:20 GMT-0400 (Eastern Daylight Time)","Mon Oct 05 2020 11:41:36 GMT-0400 (Eastern Daylight Time)","Mozilla/5.0 (Windows NT 10.0; Win64; x64) AppleWebKit/537.36 (KHTML, like Gecko) Chrome/85.0.4183.121 Safari/537.36",51,"[0.9, 0.5, 0.1]","[0.8, 0.4, 0.2]","[u'blue', u'black', u'red']","[u'left', u'middle', u'right']","[0.9, 0.5, 0.1]","[u'medium', u'low', u'high']","black",50,"middle","low","True","False",266,2850,NA
"AKC9H6IX5YCG4","Mon Oct 05 2020 11:34:20 GMT-0400 (Eastern Daylight Time)","Mon Oct 05 2020 11:41:36 GMT-0400 (Eastern Daylight Time)","Mozilla/5.0 (Windows NT 10.0; Win64; x64) AppleWebKit/537.36 (KHTML, like Gecko) Chrome/85.0.4183.121 Safari/537.36",52,"[0.9, 0.5, 0.1]","[0.8, 0.4, 0.2]","[u'blue', u'black', u'red']","[u'left', u'middle', u'right']","[0.9, 0.5, 0.1]","[u'medium', u'low', u'high']","black",50,"middle","low","False","False",284,2800,NA
"AKC9H6IX5YCG4","Mon Oct 05 2020 11:34:20 GMT-0400 (Eastern Daylight Time)","Mon Oct 05 2020 11:41:36 GMT-0400 (Eastern Daylight Time)","Mozilla/5.0 (Windows NT 10.0; Win64; x64) AppleWebKit/537.36 (KHTML, like Gecko) Chrome/85.0.4183.121 Safari/537.36",53,"[0.9, 0.5, 0.1]","[0.8, 0.4, 0.2]","[u'blue', u'black', u'red']","[u'left', u'middle', u'right']","[0.9, 0.5, 0.1]","[u'medium', u'low', u'high']","black",50,"middle","low","False","False",235,2750,NA
"AKC9H6IX5YCG4","Mon Oct 05 2020 11:34:20 GMT-0400 (Eastern Daylight Time)","Mon Oct 05 2020 11:41:36 GMT-0400 (Eastern Daylight Time)","Mozilla/5.0 (Windows NT 10.0; Win64; x64) AppleWebKit/537.36 (KHTML, like Gecko) Chrome/85.0.4183.121 Safari/537.36",54,"[0.9, 0.5, 0.1]","[0.8, 0.4, 0.2]","[u'blue', u'black', u'red']","[u'left', u'middle', u'right']","[0.9, 0.5, 0.1]","[u'medium', u'low', u'high']","blue",49,"left","medium","True","False",273,2850,NA
"AKC9H6IX5YCG4","Mon Oct 05 2020 11:34:20 GMT-0400 (Eastern Daylight Time)","Mon Oct 05 2020 11:41:36 GMT-0400 (Eastern Daylight Time)","Mozilla/5.0 (Windows NT 10.0; Win64; x64) AppleWebKit/537.36 (KHTML, like Gecko) Chrome/85.0.4183.121 Safari/537.36",55,"[0.9, 0.5, 0.1]","[0.8, 0.4, 0.2]","[u'blue', u'black', u'red']","[u'left', u'middle', u'right']","[0.9, 0.5, 0.1]","[u'medium', u'low', u'high']","blue",49,"left","medium","True","False",252,2950,NA
"AKC9H6IX5YCG4","Mon Oct 05 2020 11:34:20 GMT-0400 (Eastern Daylight Time)","Mon Oct 05 2020 11:41:36 GMT-0400 (Eastern Daylight Time)","Mozilla/5.0 (Windows NT 10.0; Win64; x64) AppleWebKit/537.36 (KHTML, like Gecko) Chrome/85.0.4183.121 Safari/537.36",56,"[0.9, 0.5, 0.1]","[0.8, 0.4, 0.2]","[u'blue', u'black', u'red']","[u'left', u'middle', u'right']","[0.9, 0.5, 0.1]","[u'medium', u'low', u'high']","blue",49,"left","medium","True","False",236,3050,NA
"AKC9H6IX5YCG4","Mon Oct 05 2020 11:34:20 GMT-0400 (Eastern Daylight Time)","Mon Oct 05 2020 11:41:36 GMT-0400 (Eastern Daylight Time)","Mozilla/5.0 (Windows NT 10.0; Win64; x64) AppleWebKit/537.36 (KHTML, like Gecko) Chrome/85.0.4183.121 Safari/537.36",57,"[0.9, 0.5, 0.1]","[0.8, 0.4, 0.2]","[u'blue', u'black', u'red']","[u'left', u'middle', u'right']","[0.9, 0.5, 0.1]","[u'medium', u'low', u'high']","blue",49,"left","medium","True","False",226,3150,NA
"AKC9H6IX5YCG4","Mon Oct 05 2020 11:34:20 GMT-0400 (Eastern Daylight Time)","Mon Oct 05 2020 11:41:36 GMT-0400 (Eastern Daylight Time)","Mozilla/5.0 (Windows NT 10.0; Win64; x64) AppleWebKit/537.36 (KHTML, like Gecko) Chrome/85.0.4183.121 Safari/537.36",58,"[0.9, 0.5, 0.1]","[0.8, 0.4, 0.2]","[u'blue', u'black', u'red']","[u'left', u'middle', u'right']","[0.9, 0.5, 0.1]","[u'medium', u'low', u'high']","blue",49,"left","medium","False","False",275,3100,NA
"AKC9H6IX5YCG4","Mon Oct 05 2020 11:34:20 GMT-0400 (Eastern Daylight Time)","Mon Oct 05 2020 11:41:36 GMT-0400 (Eastern Daylight Time)","Mozilla/5.0 (Windows NT 10.0; Win64; x64) AppleWebKit/537.36 (KHTML, like Gecko) Chrome/85.0.4183.121 Safari/537.36",59,"[0.9, 0.5, 0.1]","[0.8, 0.4, 0.2]","[u'blue', u'black', u'red']","[u'left', u'middle', u'right']","[0.9, 0.5, 0.1]","[u'medium', u'low', u'high']","blue",49,"left","medium","False","False",225,3050,NA
"AKC9H6IX5YCG4","Mon Oct 05 2020 11:34:20 GMT-0400 (Eastern Daylight Time)","Mon Oct 05 2020 11:41:36 GMT-0400 (Eastern Daylight Time)","Mozilla/5.0 (Windows NT 10.0; Win64; x64) AppleWebKit/537.36 (KHTML, like Gecko) Chrome/85.0.4183.121 Safari/537.36",60,"[0.9, 0.5, 0.1]","[0.8, 0.4, 0.2]","[u'blue', u'black', u'red']","[u'left', u'middle', u'right']","[0.9, 0.5, 0.1]","[u'medium', u'low', u'high']","red",51,"right","high","True","False",243,3150,NA
"AKC9H6IX5YCG4","Mon Oct 05 2020 11:34:20 GMT-0400 (Eastern Daylight Time)","Mon Oct 05 2020 11:41:36 GMT-0400 (Eastern Daylight Time)","Mozilla/5.0 (Windows NT 10.0; Win64; x64) AppleWebKit/537.36 (KHTML, like Gecko) Chrome/85.0.4183.121 Safari/537.36",61,"[0.9, 0.5, 0.1]","[0.8, 0.4, 0.2]","[u'blue', u'black', u'red']","[u'left', u'middle', u'right']","[0.9, 0.5, 0.1]","[u'medium', u'low', u'high']","red",51,"right","high","True","False",282,3250,NA
"AKC9H6IX5YCG4","Mon Oct 05 2020 11:34:20 GMT-0400 (Eastern Daylight Time)","Mon Oct 05 2020 11:41:36 GMT-0400 (Eastern Daylight Time)","Mozilla/5.0 (Windows NT 10.0; Win64; x64) AppleWebKit/537.36 (KHTML, like Gecko) Chrome/85.0.4183.121 Safari/537.36",62,"[0.9, 0.5, 0.1]","[0.8, 0.4, 0.2]","[u'blue', u'black', u'red']","[u'left', u'middle', u'right']","[0.9, 0.5, 0.1]","[u'medium', u'low', u'high']","red",51,"right","high","True","False",244,3350,NA
"AKC9H6IX5YCG4","Mon Oct 05 2020 11:34:20 GMT-0400 (Eastern Daylight Time)","Mon Oct 05 2020 11:41:36 GMT-0400 (Eastern Daylight Time)","Mozilla/5.0 (Windows NT 10.0; Win64; x64) AppleWebKit/537.36 (KHTML, like Gecko) Chrome/85.0.4183.121 Safari/537.36",63,"[0.9, 0.5, 0.1]","[0.8, 0.4, 0.2]","[u'blue', u'black', u'red']","[u'left', u'middle', u'right']","[0.9, 0.5, 0.1]","[u'medium', u'low', u'high']","red",51,"right","high","True","False",320,3450,NA
"AKC9H6IX5YCG4","Mon Oct 05 2020 11:34:20 GMT-0400 (Eastern Daylight Time)","Mon Oct 05 2020 11:41:36 GMT-0400 (Eastern Daylight Time)","Mozilla/5.0 (Windows NT 10.0; Win64; x64) AppleWebKit/537.36 (KHTML, like Gecko) Chrome/85.0.4183.121 Safari/537.36",64,"[0.9, 0.5, 0.1]","[0.8, 0.4, 0.2]","[u'blue', u'black', u'red']","[u'left', u'middle', u'right']","[0.9, 0.5, 0.1]","[u'medium', u'low', u'high']","red",51,"right","high","True","False",267,3550,NA
"AKC9H6IX5YCG4","Mon Oct 05 2020 11:34:20 GMT-0400 (Eastern Daylight Time)","Mon Oct 05 2020 11:41:36 GMT-0400 (Eastern Daylight Time)","Mozilla/5.0 (Windows NT 10.0; Win64; x64) AppleWebKit/537.36 (KHTML, like Gecko) Chrome/85.0.4183.121 Safari/537.36",65,"[0.9, 0.5, 0.1]","[0.8, 0.4, 0.2]","[u'blue', u'black', u'red']","[u'left', u'middle', u'right']","[0.9, 0.5, 0.1]","[u'medium', u'low', u'high']","red",51,"right","high","True","False",323,3650,NA
"AKC9H6IX5YCG4","Mon Oct 05 2020 11:34:20 GMT-0400 (Eastern Daylight Time)","Mon Oct 05 2020 11:41:36 GMT-0400 (Eastern Daylight Time)","Mozilla/5.0 (Windows NT 10.0; Win64; x64) AppleWebKit/537.36 (KHTML, like Gecko) Chrome/85.0.4183.121 Safari/537.36",66,"[0.9, 0.5, 0.1]","[0.8, 0.4, 0.2]","[u'blue', u'black', u'red']","[u'left', u'middle', u'right']","[0.9, 0.5, 0.1]","[u'medium', u'low', u'high']","red",51,"right","high","True","False",291,3750,NA
"AKC9H6IX5YCG4","Mon Oct 05 2020 11:34:20 GMT-0400 (Eastern Daylight Time)","Mon Oct 05 2020 11:41:36 GMT-0400 (Eastern Daylight Time)","Mozilla/5.0 (Windows NT 10.0; Win64; x64) AppleWebKit/537.36 (KHTML, like Gecko) Chrome/85.0.4183.121 Safari/537.36",67,"[0.9, 0.5, 0.1]","[0.8, 0.4, 0.2]","[u'blue', u'black', u'red']","[u'left', u'middle', u'right']","[0.9, 0.5, 0.1]","[u'medium', u'low', u'high']","red",51,"right","high","True","False",314,3850,NA
"AKC9H6IX5YCG4","Mon Oct 05 2020 11:34:20 GMT-0400 (Eastern Daylight Time)","Mon Oct 05 2020 11:41:36 GMT-0400 (Eastern Daylight Time)","Mozilla/5.0 (Windows NT 10.0; Win64; x64) AppleWebKit/537.36 (KHTML, like Gecko) Chrome/85.0.4183.121 Safari/537.36",68,"[0.9, 0.5, 0.1]","[0.8, 0.4, 0.2]","[u'blue', u'black', u'red']","[u'left', u'middle', u'right']","[0.9, 0.5, 0.1]","[u'medium', u'low', u'high']","red",51,"right","high","True","True",268,3950,NA
"AKC9H6IX5YCG4","Mon Oct 05 2020 11:34:20 GMT-0400 (Eastern Daylight Time)","Mon Oct 05 2020 11:41:36 GMT-0400 (Eastern Daylight Time)","Mozilla/5.0 (Windows NT 10.0; Win64; x64) AppleWebKit/537.36 (KHTML, like Gecko) Chrome/85.0.4183.121 Safari/537.36",69,"[0.9, 0.5, 0.1]","[0.8, 0.4, 0.2]","[u'blue', u'black', u'red']","[u'left', u'middle', u'right']","[0.9, 0.5, 0.1]","[u'high', u'low', u'medium']","red",51,"right","medium","False","False",354,3900,NA
"AKC9H6IX5YCG4","Mon Oct 05 2020 11:34:20 GMT-0400 (Eastern Daylight Time)","Mon Oct 05 2020 11:41:36 GMT-0400 (Eastern Daylight Time)","Mozilla/5.0 (Windows NT 10.0; Win64; x64) AppleWebKit/537.36 (KHTML, like Gecko) Chrome/85.0.4183.121 Safari/537.36",70,"[0.9, 0.5, 0.1]","[0.8, 0.4, 0.2]","[u'blue', u'black', u'red']","[u'left', u'middle', u'right']","[0.9, 0.5, 0.1]","[u'high', u'low', u'medium']","blue",49,"left","high","False","False",306,3850,NA
"AKC9H6IX5YCG4","Mon Oct 05 2020 11:34:20 GMT-0400 (Eastern Daylight Time)","Mon Oct 05 2020 11:41:36 GMT-0400 (Eastern Daylight Time)","Mozilla/5.0 (Windows NT 10.0; Win64; x64) AppleWebKit/537.36 (KHTML, like Gecko) Chrome/85.0.4183.121 Safari/537.36",71,"[0.9, 0.5, 0.1]","[0.8, 0.4, 0.2]","[u'blue', u'black', u'red']","[u'left', u'middle', u'right']","[0.9, 0.5, 0.1]","[u'high', u'low', u'medium']","black",50,"middle","low","False","False",283,3800,NA
"AKC9H6IX5YCG4","Mon Oct 05 2020 11:34:20 GMT-0400 (Eastern Daylight Time)","Mon Oct 05 2020 11:41:36 GMT-0400 (Eastern Daylight Time)","Mozilla/5.0 (Windows NT 10.0; Win64; x64) AppleWebKit/537.36 (KHTML, like Gecko) Chrome/85.0.4183.121 Safari/537.36",72,"[0.9, 0.5, 0.1]","[0.8, 0.4, 0.2]","[u'blue', u'black', u'red']","[u'left', u'middle', u'right']","[0.9, 0.5, 0.1]","[u'high', u'low', u'medium']","red",51,"right","medium","False","False",243,3750,NA
"AKC9H6IX5YCG4","Mon Oct 05 2020 11:34:20 GMT-0400 (Eastern Daylight Time)","Mon Oct 05 2020 11:41:36 GMT-0400 (Eastern Daylight Time)","Mozilla/5.0 (Windows NT 10.0; Win64; x64) AppleWebKit/537.36 (KHTML, like Gecko) Chrome/85.0.4183.121 Safari/537.36",73,"[0.9, 0.5, 0.1]","[0.8, 0.4, 0.2]","[u'blue', u'black', u'red']","[u'left', u'middle', u'right']","[0.9, 0.5, 0.1]","[u'high', u'low', u'medium']","black",50,"middle","low","True","False",466,3850,NA
"AKC9H6IX5YCG4","Mon Oct 05 2020 11:34:20 GMT-0400 (Eastern Daylight Time)","Mon Oct 05 2020 11:41:36 GMT-0400 (Eastern Daylight Time)","Mozilla/5.0 (Windows NT 10.0; Win64; x64) AppleWebKit/537.36 (KHTML, like Gecko) Chrome/85.0.4183.121 Safari/537.36",74,"[0.9, 0.5, 0.1]","[0.8, 0.4, 0.2]","[u'blue', u'black', u'red']","[u'left', u'middle', u'right']","[0.9, 0.5, 0.1]","[u'high', u'low', u'medium']","black",50,"middle","low","False","False",253,3800,NA
"AKC9H6IX5YCG4","Mon Oct 05 2020 11:34:20 GMT-0400 (Eastern Daylight Time)","Mon Oct 05 2020 11:41:36 GMT-0400 (Eastern Daylight Time)","Mozilla/5.0 (Windows NT 10.0; Win64; x64) AppleWebKit/537.36 (KHTML, like Gecko) Chrome/85.0.4183.121 Safari/537.36",75,"[0.9, 0.5, 0.1]","[0.8, 0.4, 0.2]","[u'blue', u'black', u'red']","[u'left', u'middle', u'right']","[0.9, 0.5, 0.1]","[u'high', u'low', u'medium']","blue",49,"left","high","True","False",274,3900,NA
"AKC9H6IX5YCG4","Mon Oct 05 2020 11:34:20 GMT-0400 (Eastern Daylight Time)","Mon Oct 05 2020 11:41:36 GMT-0400 (Eastern Daylight Time)","Mozilla/5.0 (Windows NT 10.0; Win64; x64) AppleWebKit/537.36 (KHTML, like Gecko) Chrome/85.0.4183.121 Safari/537.36",76,"[0.9, 0.5, 0.1]","[0.8, 0.4, 0.2]","[u'blue', u'black', u'red']","[u'left', u'middle', u'right']","[0.9, 0.5, 0.1]","[u'high', u'low', u'medium']","blue",49,"left","high","True","False",235,4000,NA
"AKC9H6IX5YCG4","Mon Oct 05 2020 11:34:20 GMT-0400 (Eastern Daylight Time)","Mon Oct 05 2020 11:41:36 GMT-0400 (Eastern Daylight Time)","Mozilla/5.0 (Windows NT 10.0; Win64; x64) AppleWebKit/537.36 (KHTML, like Gecko) Chrome/85.0.4183.121 Safari/537.36",77,"[0.9, 0.5, 0.1]","[0.8, 0.4, 0.2]","[u'blue', u'black', u'red']","[u'left', u'middle', u'right']","[0.9, 0.5, 0.1]","[u'high', u'low', u'medium']","blue",49,"left","high","True","False",266,4100,NA
"AKC9H6IX5YCG4","Mon Oct 05 2020 11:34:20 GMT-0400 (Eastern Daylight Time)","Mon Oct 05 2020 11:41:36 GMT-0400 (Eastern Daylight Time)","Mozilla/5.0 (Windows NT 10.0; Win64; x64) AppleWebKit/537.36 (KHTML, like Gecko) Chrome/85.0.4183.121 Safari/537.36",78,"[0.9, 0.5, 0.1]","[0.8, 0.4, 0.2]","[u'blue', u'black', u'red']","[u'left', u'middle', u'right']","[0.9, 0.5, 0.1]","[u'high', u'low', u'medium']","blue",49,"left","high","True","False",242,4200,NA
"AKC9H6IX5YCG4","Mon Oct 05 2020 11:34:20 GMT-0400 (Eastern Daylight Time)","Mon Oct 05 2020 11:41:36 GMT-0400 (Eastern Daylight Time)","Mozilla/5.0 (Windows NT 10.0; Win64; x64) AppleWebKit/537.36 (KHTML, like Gecko) Chrome/85.0.4183.121 Safari/537.36",79,"[0.9, 0.5, 0.1]","[0.8, 0.4, 0.2]","[u'blue', u'black', u'red']","[u'left', u'middle', u'right']","[0.9, 0.5, 0.1]","[u'high', u'low', u'medium']","blue",49,"left","high","True","False",146,4300,NA
"AKC9H6IX5YCG4","Mon Oct 05 2020 11:34:20 GMT-0400 (Eastern Daylight Time)","Mon Oct 05 2020 11:41:36 GMT-0400 (Eastern Daylight Time)","Mozilla/5.0 (Windows NT 10.0; Win64; x64) AppleWebKit/537.36 (KHTML, like Gecko) Chrome/85.0.4183.121 Safari/537.36",80,"[0.9, 0.5, 0.1]","[0.8, 0.4, 0.2]","[u'blue', u'black', u'red']","[u'left', u'middle', u'right']","[0.9, 0.5, 0.1]","[u'high', u'low', u'medium']","blue",49,"left","high","True","False",172,4400,NA
"AKC9H6IX5YCG4","Mon Oct 05 2020 11:34:20 GMT-0400 (Eastern Daylight Time)","Mon Oct 05 2020 11:41:36 GMT-0400 (Eastern Daylight Time)","Mozilla/5.0 (Windows NT 10.0; Win64; x64) AppleWebKit/537.36 (KHTML, like Gecko) Chrome/85.0.4183.121 Safari/537.36",81,"[0.9, 0.5, 0.1]","[0.8, 0.4, 0.2]","[u'blue', u'black', u'red']","[u'left', u'middle', u'right']","[0.8, 0.4, 0.2]","[u'low', u'medium', u'high']","black",50,"middle","medium","False","False",338,4350,NA
"AKC9H6IX5YCG4","Mon Oct 05 2020 11:34:20 GMT-0400 (Eastern Daylight Time)","Mon Oct 05 2020 11:41:36 GMT-0400 (Eastern Daylight Time)","Mozilla/5.0 (Windows NT 10.0; Win64; x64) AppleWebKit/537.36 (KHTML, like Gecko) Chrome/85.0.4183.121 Safari/537.36",82,"[0.9, 0.5, 0.1]","[0.8, 0.4, 0.2]","[u'blue', u'black', u'red']","[u'left', u'middle', u'right']","[0.8, 0.4, 0.2]","[u'low', u'medium', u'high']","red",51,"right","high","True","False",204,4450,NA
"AKC9H6IX5YCG4","Mon Oct 05 2020 11:34:20 GMT-0400 (Eastern Daylight Time)","Mon Oct 05 2020 11:41:36 GMT-0400 (Eastern Daylight Time)","Mozilla/5.0 (Windows NT 10.0; Win64; x64) AppleWebKit/537.36 (KHTML, like Gecko) Chrome/85.0.4183.121 Safari/537.36",83,"[0.9, 0.5, 0.1]","[0.8, 0.4, 0.2]","[u'blue', u'black', u'red']","[u'left', u'middle', u'right']","[0.8, 0.4, 0.2]","[u'low', u'medium', u'high']","red",51,"right","high","True","False",260,4550,NA
"AKC9H6IX5YCG4","Mon Oct 05 2020 11:34:20 GMT-0400 (Eastern Daylight Time)","Mon Oct 05 2020 11:41:36 GMT-0400 (Eastern Daylight Time)","Mozilla/5.0 (Windows NT 10.0; Win64; x64) AppleWebKit/537.36 (KHTML, like Gecko) Chrome/85.0.4183.121 Safari/537.36",84,"[0.9, 0.5, 0.1]","[0.8, 0.4, 0.2]","[u'blue', u'black', u'red']","[u'left', u'middle', u'right']","[0.8, 0.4, 0.2]","[u'low', u'medium', u'high']","red",51,"right","high","False","False",282,4500,NA
"AKC9H6IX5YCG4","Mon Oct 05 2020 11:34:20 GMT-0400 (Eastern Daylight Time)","Mon Oct 05 2020 11:41:36 GMT-0400 (Eastern Daylight Time)","Mozilla/5.0 (Windows NT 10.0; Win64; x64) AppleWebKit/537.36 (KHTML, like Gecko) Chrome/85.0.4183.121 Safari/537.36",85,"[0.9, 0.5, 0.1]","[0.8, 0.4, 0.2]","[u'blue', u'black', u'red']","[u'left', u'middle', u'right']","[0.8, 0.4, 0.2]","[u'low', u'medium', u'high']","red",51,"right","high","True","False",148,4600,NA
"AKC9H6IX5YCG4","Mon Oct 05 2020 11:34:20 GMT-0400 (Eastern Daylight Time)","Mon Oct 05 2020 11:41:36 GMT-0400 (Eastern Daylight Time)","Mozilla/5.0 (Windows NT 10.0; Win64; x64) AppleWebKit/537.36 (KHTML, like Gecko) Chrome/85.0.4183.121 Safari/537.36",86,"[0.9, 0.5, 0.1]","[0.8, 0.4, 0.2]","[u'blue', u'black', u'red']","[u'left', u'middle', u'right']","[0.8, 0.4, 0.2]","[u'low', u'medium', u'high']","red",51,"right","high","True","False",234,4700,NA
"AKC9H6IX5YCG4","Mon Oct 05 2020 11:34:20 GMT-0400 (Eastern Daylight Time)","Mon Oct 05 2020 11:41:36 GMT-0400 (Eastern Daylight Time)","Mozilla/5.0 (Windows NT 10.0; Win64; x64) AppleWebKit/537.36 (KHTML, like Gecko) Chrome/85.0.4183.121 Safari/537.36",87,"[0.9, 0.5, 0.1]","[0.8, 0.4, 0.2]","[u'blue', u'black', u'red']","[u'left', u'middle', u'right']","[0.8, 0.4, 0.2]","[u'low', u'medium', u'high']","red",51,"right","high","True","False",236,4800,NA
"AKC9H6IX5YCG4","Mon Oct 05 2020 11:34:20 GMT-0400 (Eastern Daylight Time)","Mon Oct 05 2020 11:41:36 GMT-0400 (Eastern Daylight Time)","Mozilla/5.0 (Windows NT 10.0; Win64; x64) AppleWebKit/537.36 (KHTML, like Gecko) Chrome/85.0.4183.121 Safari/537.36",88,"[0.9, 0.5, 0.1]","[0.8, 0.4, 0.2]","[u'blue', u'black', u'red']","[u'left', u'middle', u'right']","[0.8, 0.4, 0.2]","[u'low', u'medium', u'high']","red",51,"right","high","True","False",259,4900,NA
"AKC9H6IX5YCG4","Mon Oct 05 2020 11:34:20 GMT-0400 (Eastern Daylight Time)","Mon Oct 05 2020 11:41:36 GMT-0400 (Eastern Daylight Time)","Mozilla/5.0 (Windows NT 10.0; Win64; x64) AppleWebKit/537.36 (KHTML, like Gecko) Chrome/85.0.4183.121 Safari/537.36",89,"[0.9, 0.5, 0.1]","[0.8, 0.4, 0.2]","[u'blue', u'black', u'red']","[u'left', u'middle', u'right']","[0.8, 0.4, 0.2]","[u'low', u'medium', u'high']","red",51,"right","high","False","False",235,4850,NA
"AKC9H6IX5YCG4","Mon Oct 05 2020 11:34:20 GMT-0400 (Eastern Daylight Time)","Mon Oct 05 2020 11:41:36 GMT-0400 (Eastern Daylight Time)","Mozilla/5.0 (Windows NT 10.0; Win64; x64) AppleWebKit/537.36 (KHTML, like Gecko) Chrome/85.0.4183.121 Safari/537.36",90,"[0.9, 0.5, 0.1]","[0.8, 0.4, 0.2]","[u'blue', u'black', u'red']","[u'left', u'middle', u'right']","[0.8, 0.4, 0.2]","[u'low', u'medium', u'high']","red",51,"right","high","True","True",250,4950,NA
"AKC9H6IX5YCG4","Mon Oct 05 2020 11:34:20 GMT-0400 (Eastern Daylight Time)","Mon Oct 05 2020 11:41:36 GMT-0400 (Eastern Daylight Time)","Mozilla/5.0 (Windows NT 10.0; Win64; x64) AppleWebKit/537.36 (KHTML, like Gecko) Chrome/85.0.4183.121 Safari/537.36",91,"[0.9, 0.5, 0.1]","[0.8, 0.4, 0.2]","[u'blue', u'black', u'red']","[u'left', u'middle', u'right']","[0.8, 0.4, 0.2]","[u'medium', u'high', u'low']","red",51,"right","low","False","False",203,4900,NA
"AKC9H6IX5YCG4","Mon Oct 05 2020 11:34:20 GMT-0400 (Eastern Daylight Time)","Mon Oct 05 2020 11:41:36 GMT-0400 (Eastern Daylight Time)","Mozilla/5.0 (Windows NT 10.0; Win64; x64) AppleWebKit/537.36 (KHTML, like Gecko) Chrome/85.0.4183.121 Safari/537.36",92,"[0.9, 0.5, 0.1]","[0.8, 0.4, 0.2]","[u'blue', u'black', u'red']","[u'left', u'middle', u'right']","[0.8, 0.4, 0.2]","[u'medium', u'high', u'low']","blue",49,"left","medium","False","False",227,4850,NA
"AKC9H6IX5YCG4","Mon Oct 05 2020 11:34:20 GMT-0400 (Eastern Daylight Time)","Mon Oct 05 2020 11:41:36 GMT-0400 (Eastern Daylight Time)","Mozilla/5.0 (Windows NT 10.0; Win64; x64) AppleWebKit/537.36 (KHTML, like Gecko) Chrome/85.0.4183.121 Safari/537.36",93,"[0.9, 0.5, 0.1]","[0.8, 0.4, 0.2]","[u'blue', u'black', u'red']","[u'left', u'middle', u'right']","[0.8, 0.4, 0.2]","[u'medium', u'high', u'low']","black",50,"middle","high","True","False",186,4950,NA
"AKC9H6IX5YCG4","Mon Oct 05 2020 11:34:20 GMT-0400 (Eastern Daylight Time)","Mon Oct 05 2020 11:41:36 GMT-0400 (Eastern Daylight Time)","Mozilla/5.0 (Windows NT 10.0; Win64; x64) AppleWebKit/537.36 (KHTML, like Gecko) Chrome/85.0.4183.121 Safari/537.36",94,"[0.9, 0.5, 0.1]","[0.8, 0.4, 0.2]","[u'blue', u'black', u'red']","[u'left', u'middle', u'right']","[0.8, 0.4, 0.2]","[u'medium', u'high', u'low']","black",50,"middle","high","True","False",258,5050,NA
"AKC9H6IX5YCG4","Mon Oct 05 2020 11:34:20 GMT-0400 (Eastern Daylight Time)","Mon Oct 05 2020 11:41:36 GMT-0400 (Eastern Daylight Time)","Mozilla/5.0 (Windows NT 10.0; Win64; x64) AppleWebKit/537.36 (KHTML, like Gecko) Chrome/85.0.4183.121 Safari/537.36",95,"[0.9, 0.5, 0.1]","[0.8, 0.4, 0.2]","[u'blue', u'black', u'red']","[u'left', u'middle', u'right']","[0.8, 0.4, 0.2]","[u'medium', u'high', u'low']","black",50,"middle","high","True","False",267,5150,NA
"AKC9H6IX5YCG4","Mon Oct 05 2020 11:34:20 GMT-0400 (Eastern Daylight Time)","Mon Oct 05 2020 11:41:36 GMT-0400 (Eastern Daylight Time)","Mozilla/5.0 (Windows NT 10.0; Win64; x64) AppleWebKit/537.36 (KHTML, like Gecko) Chrome/85.0.4183.121 Safari/537.36",96,"[0.9, 0.5, 0.1]","[0.8, 0.4, 0.2]","[u'blue', u'black', u'red']","[u'left', u'middle', u'right']","[0.8, 0.4, 0.2]","[u'medium', u'high', u'low']","black",50,"middle","high","True","False",227,5250,NA
"AKC9H6IX5YCG4","Mon Oct 05 2020 11:34:20 GMT-0400 (Eastern Daylight Time)","Mon Oct 05 2020 11:41:36 GMT-0400 (Eastern Daylight Time)","Mozilla/5.0 (Windows NT 10.0; Win64; x64) AppleWebKit/537.36 (KHTML, like Gecko) Chrome/85.0.4183.121 Safari/537.36",97,"[0.9, 0.5, 0.1]","[0.8, 0.4, 0.2]","[u'blue', u'black', u'red']","[u'left', u'middle', u'right']","[0.8, 0.4, 0.2]","[u'medium', u'high', u'low']","black",50,"middle","high","True","False",309,5350,NA
"AKC9H6IX5YCG4","Mon Oct 05 2020 11:34:20 GMT-0400 (Eastern Daylight Time)","Mon Oct 05 2020 11:41:36 GMT-0400 (Eastern Daylight Time)","Mozilla/5.0 (Windows NT 10.0; Win64; x64) AppleWebKit/537.36 (KHTML, like Gecko) Chrome/85.0.4183.121 Safari/537.36",98,"[0.9, 0.5, 0.1]","[0.8, 0.4, 0.2]","[u'blue', u'black', u'red']","[u'left', u'middle', u'right']","[0.8, 0.4, 0.2]","[u'medium', u'high', u'low']","black",50,"middle","high","True","False",299,5450,NA
"AKC9H6IX5YCG4","Mon Oct 05 2020 11:34:20 GMT-0400 (Eastern Daylight Time)","Mon Oct 05 2020 11:41:36 GMT-0400 (Eastern Daylight Time)","Mozilla/5.0 (Windows NT 10.0; Win64; x64) AppleWebKit/537.36 (KHTML, like Gecko) Chrome/85.0.4183.121 Safari/537.36",99,"[0.9, 0.5, 0.1]","[0.8, 0.4, 0.2]","[u'blue', u'black', u'red']","[u'left', u'middle', u'right']","[0.8, 0.4, 0.2]","[u'medium', u'high', u'low']","black",50,"middle","high","True","False",266,5550,NA
"AKC9H6IX5YCG4","Mon Oct 05 2020 11:34:20 GMT-0400 (Eastern Daylight Time)","Mon Oct 05 2020 11:41:36 GMT-0400 (Eastern Daylight Time)","Mozilla/5.0 (Windows NT 10.0; Win64; x64) AppleWebKit/537.36 (KHTML, like Gecko) Chrome/85.0.4183.121 Safari/537.36",100,"[0.9, 0.5, 0.1]","[0.8, 0.4, 0.2]","[u'blue', u'black', u'red']","[u'left', u'middle', u'right']","[0.8, 0.4, 0.2]","[u'medium', u'high', u'low']","black",50,"middle","high","False","False",307,5500,NA
"AKC9H6IX5YCG4","Mon Oct 05 2020 11:34:20 GMT-0400 (Eastern Daylight Time)","Mon Oct 05 2020 11:41:36 GMT-0400 (Eastern Daylight Time)","Mozilla/5.0 (Windows NT 10.0; Win64; x64) AppleWebKit/537.36 (KHTML, like Gecko) Chrome/85.0.4183.121 Safari/537.36",101,"[0.9, 0.5, 0.1]","[0.8, 0.4, 0.2]","[u'blue', u'black', u'red']","[u'left', u'middle', u'right']","[0.8, 0.4, 0.2]","[u'medium', u'high', u'low']","black",50,"middle","high","True","True",249,5600,NA
"AKC9H6IX5YCG4","Mon Oct 05 2020 11:34:20 GMT-0400 (Eastern Daylight Time)","Mon Oct 05 2020 11:41:36 GMT-0400 (Eastern Daylight Time)","Mozilla/5.0 (Windows NT 10.0; Win64; x64) AppleWebKit/537.36 (KHTML, like Gecko) Chrome/85.0.4183.121 Safari/537.36",102,"[0.9, 0.5, 0.1]","[0.8, 0.4, 0.2]","[u'blue', u'black', u'red']","[u'left', u'middle', u'right']","[0.8, 0.4, 0.2]","[u'high', u'low', u'medium']","black",50,"middle","low","False","False",241,5550,NA
"AKC9H6IX5YCG4","Mon Oct 05 2020 11:34:20 GMT-0400 (Eastern Daylight Time)","Mon Oct 05 2020 11:41:36 GMT-0400 (Eastern Daylight Time)","Mozilla/5.0 (Windows NT 10.0; Win64; x64) AppleWebKit/537.36 (KHTML, like Gecko) Chrome/85.0.4183.121 Safari/537.36",103,"[0.9, 0.5, 0.1]","[0.8, 0.4, 0.2]","[u'blue', u'black', u'red']","[u'left', u'middle', u'right']","[0.8, 0.4, 0.2]","[u'high', u'low', u'medium']","blue",49,"left","high","True","False",260,5650,NA
"AKC9H6IX5YCG4","Mon Oct 05 2020 11:34:20 GMT-0400 (Eastern Daylight Time)","Mon Oct 05 2020 11:41:36 GMT-0400 (Eastern Daylight Time)","Mozilla/5.0 (Windows NT 10.0; Win64; x64) AppleWebKit/537.36 (KHTML, like Gecko) Chrome/85.0.4183.121 Safari/537.36",104,"[0.9, 0.5, 0.1]","[0.8, 0.4, 0.2]","[u'blue', u'black', u'red']","[u'left', u'middle', u'right']","[0.8, 0.4, 0.2]","[u'high', u'low', u'medium']","blue",49,"left","high","True","False",195,5750,NA
"AKC9H6IX5YCG4","Mon Oct 05 2020 11:34:20 GMT-0400 (Eastern Daylight Time)","Mon Oct 05 2020 11:41:36 GMT-0400 (Eastern Daylight Time)","Mozilla/5.0 (Windows NT 10.0; Win64; x64) AppleWebKit/537.36 (KHTML, like Gecko) Chrome/85.0.4183.121 Safari/537.36",105,"[0.9, 0.5, 0.1]","[0.8, 0.4, 0.2]","[u'blue', u'black', u'red']","[u'left', u'middle', u'right']","[0.8, 0.4, 0.2]","[u'high', u'low', u'medium']","blue",49,"left","high","True","False",210,5850,NA
"AKC9H6IX5YCG4","Mon Oct 05 2020 11:34:20 GMT-0400 (Eastern Daylight Time)","Mon Oct 05 2020 11:41:36 GMT-0400 (Eastern Daylight Time)","Mozilla/5.0 (Windows NT 10.0; Win64; x64) AppleWebKit/537.36 (KHTML, like Gecko) Chrome/85.0.4183.121 Safari/537.36",106,"[0.9, 0.5, 0.1]","[0.8, 0.4, 0.2]","[u'blue', u'black', u'red']","[u'left', u'middle', u'right']","[0.8, 0.4, 0.2]","[u'high', u'low', u'medium']","blue",49,"left","high","False","False",238,5800,NA
"AKC9H6IX5YCG4","Mon Oct 05 2020 11:34:20 GMT-0400 (Eastern Daylight Time)","Mon Oct 05 2020 11:41:36 GMT-0400 (Eastern Daylight Time)","Mozilla/5.0 (Windows NT 10.0; Win64; x64) AppleWebKit/537.36 (KHTML, like Gecko) Chrome/85.0.4183.121 Safari/537.36",107,"[0.9, 0.5, 0.1]","[0.8, 0.4, 0.2]","[u'blue', u'black', u'red']","[u'left', u'middle', u'right']","[0.8, 0.4, 0.2]","[u'high', u'low', u'medium']","blue",49,"left","high","True","False",138,5900,NA
"AKC9H6IX5YCG4","Mon Oct 05 2020 11:34:20 GMT-0400 (Eastern Daylight Time)","Mon Oct 05 2020 11:41:36 GMT-0400 (Eastern Daylight Time)","Mozilla/5.0 (Windows NT 10.0; Win64; x64) AppleWebKit/537.36 (KHTML, like Gecko) Chrome/85.0.4183.121 Safari/537.36",108,"[0.9, 0.5, 0.1]","[0.8, 0.4, 0.2]","[u'blue', u'black', u'red']","[u'left', u'middle', u'right']","[0.8, 0.4, 0.2]","[u'high', u'low', u'medium']","blue",49,"left","high","False","False",171,5850,NA
"AKC9H6IX5YCG4","Mon Oct 05 2020 11:34:20 GMT-0400 (Eastern Daylight Time)","Mon Oct 05 2020 11:41:36 GMT-0400 (Eastern Daylight Time)","Mozilla/5.0 (Windows NT 10.0; Win64; x64) AppleWebKit/537.36 (KHTML, like Gecko) Chrome/85.0.4183.121 Safari/537.36",109,"[0.9, 0.5, 0.1]","[0.8, 0.4, 0.2]","[u'blue', u'black', u'red']","[u'left', u'middle', u'right']","[0.8, 0.4, 0.2]","[u'high', u'low', u'medium']","red",51,"right","medium","True","False",205,5950,NA
"AKC9H6IX5YCG4","Mon Oct 05 2020 11:34:20 GMT-0400 (Eastern Daylight Time)","Mon Oct 05 2020 11:41:36 GMT-0400 (Eastern Daylight Time)","Mozilla/5.0 (Windows NT 10.0; Win64; x64) AppleWebKit/537.36 (KHTML, like Gecko) Chrome/85.0.4183.121 Safari/537.36",110,"[0.9, 0.5, 0.1]","[0.8, 0.4, 0.2]","[u'blue', u'black', u'red']","[u'left', u'middle', u'right']","[0.8, 0.4, 0.2]","[u'high', u'low', u'medium']","red",51,"right","medium","True","False",242,6050,NA
"AKC9H6IX5YCG4","Mon Oct 05 2020 11:34:20 GMT-0400 (Eastern Daylight Time)","Mon Oct 05 2020 11:41:36 GMT-0400 (Eastern Daylight Time)","Mozilla/5.0 (Windows NT 10.0; Win64; x64) AppleWebKit/537.36 (KHTML, like Gecko) Chrome/85.0.4183.121 Safari/537.36",111,"[0.9, 0.5, 0.1]","[0.8, 0.4, 0.2]","[u'blue', u'black', u'red']","[u'left', u'middle', u'right']","[0.8, 0.4, 0.2]","[u'high', u'low', u'medium']","red",51,"right","medium","False","False",219,6000,NA
"AKC9H6IX5YCG4","Mon Oct 05 2020 11:34:20 GMT-0400 (Eastern Daylight Time)","Mon Oct 05 2020 11:41:36 GMT-0400 (Eastern Daylight Time)","Mozilla/5.0 (Windows NT 10.0; Win64; x64) AppleWebKit/537.36 (KHTML, like Gecko) Chrome/85.0.4183.121 Safari/537.36",112,"[0.9, 0.5, 0.1]","[0.8, 0.4, 0.2]","[u'blue', u'black', u'red']","[u'left', u'middle', u'right']","[0.8, 0.4, 0.2]","[u'high', u'low', u'medium']","red",51,"right","medium","False","False",186,5950,NA
"AKC9H6IX5YCG4","Mon Oct 05 2020 11:34:20 GMT-0400 (Eastern Daylight Time)","Mon Oct 05 2020 11:41:36 GMT-0400 (Eastern Daylight Time)","Mozilla/5.0 (Windows NT 10.0; Win64; x64) AppleWebKit/537.36 (KHTML, like Gecko) Chrome/85.0.4183.121 Safari/537.36",113,"[0.9, 0.5, 0.1]","[0.8, 0.4, 0.2]","[u'blue', u'black', u'red']","[u'left', u'middle', u'right']","[0.8, 0.4, 0.2]","[u'high', u'low', u'medium']","black",50,"middle","low","False","False",163,5900,NA
"AKC9H6IX5YCG4","Mon Oct 05 2020 11:34:20 GMT-0400 (Eastern Daylight Time)","Mon Oct 05 2020 11:41:36 GMT-0400 (Eastern Daylight Time)","Mozilla/5.0 (Windows NT 10.0; Win64; x64) AppleWebKit/537.36 (KHTML, like Gecko) Chrome/85.0.4183.121 Safari/537.36",114,"[0.9, 0.5, 0.1]","[0.8, 0.4, 0.2]","[u'blue', u'black', u'red']","[u'left', u'middle', u'right']","[0.8, 0.4, 0.2]","[u'high', u'low', u'medium']","blue",49,"left","high","True","False",203,6000,NA
"AKC9H6IX5YCG4","Mon Oct 05 2020 11:34:20 GMT-0400 (Eastern Daylight Time)","Mon Oct 05 2020 11:41:36 GMT-0400 (Eastern Daylight Time)","Mozilla/5.0 (Windows NT 10.0; Win64; x64) AppleWebKit/537.36 (KHTML, like Gecko) Chrome/85.0.4183.121 Safari/537.36",115,"[0.9, 0.5, 0.1]","[0.8, 0.4, 0.2]","[u'blue', u'black', u'red']","[u'left', u'middle', u'right']","[0.8, 0.4, 0.2]","[u'high', u'low', u'medium']","blue",49,"left","high","False","False",196,5950,NA
"AKC9H6IX5YCG4","Mon Oct 05 2020 11:34:20 GMT-0400 (Eastern Daylight Time)","Mon Oct 05 2020 11:41:36 GMT-0400 (Eastern Daylight Time)","Mozilla/5.0 (Windows NT 10.0; Win64; x64) AppleWebKit/537.36 (KHTML, like Gecko) Chrome/85.0.4183.121 Safari/537.36",116,"[0.9, 0.5, 0.1]","[0.8, 0.4, 0.2]","[u'blue', u'black', u'red']","[u'left', u'middle', u'right']","[0.8, 0.4, 0.2]","[u'high', u'low', u'medium']","red",51,"right","medium","False","False",275,5900,NA
"AKC9H6IX5YCG4","Mon Oct 05 2020 11:34:20 GMT-0400 (Eastern Daylight Time)","Mon Oct 05 2020 11:41:36 GMT-0400 (Eastern Daylight Time)","Mozilla/5.0 (Windows NT 10.0; Win64; x64) AppleWebKit/537.36 (KHTML, like Gecko) Chrome/85.0.4183.121 Safari/537.36",117,"[0.9, 0.5, 0.1]","[0.8, 0.4, 0.2]","[u'blue', u'black', u'red']","[u'left', u'middle', u'right']","[0.8, 0.4, 0.2]","[u'high', u'low', u'medium']","blue",49,"left","high","False","False",227,5850,NA
"AKC9H6IX5YCG4","Mon Oct 05 2020 11:34:20 GMT-0400 (Eastern Daylight Time)","Mon Oct 05 2020 11:41:36 GMT-0400 (Eastern Daylight Time)","Mozilla/5.0 (Windows NT 10.0; Win64; x64) AppleWebKit/537.36 (KHTML, like Gecko) Chrome/85.0.4183.121 Safari/537.36",118,"[0.9, 0.5, 0.1]","[0.8, 0.4, 0.2]","[u'blue', u'black', u'red']","[u'left', u'middle', u'right']","[0.8, 0.4, 0.2]","[u'high', u'low', u'medium']","black",50,"middle","low","False","False",210,5800,NA
"AKC9H6IX5YCG4","Mon Oct 05 2020 11:34:20 GMT-0400 (Eastern Daylight Time)","Mon Oct 05 2020 11:41:36 GMT-0400 (Eastern Daylight Time)","Mozilla/5.0 (Windows NT 10.0; Win64; x64) AppleWebKit/537.36 (KHTML, like Gecko) Chrome/85.0.4183.121 Safari/537.36",119,"[0.9, 0.5, 0.1]","[0.8, 0.4, 0.2]","[u'blue', u'black', u'red']","[u'left', u'middle', u'right']","[0.8, 0.4, 0.2]","[u'high', u'low', u'medium']","black",50,"middle","low","False","False",115,5750,NA
"AKC9H6IX5YCG4","Mon Oct 05 2020 11:34:20 GMT-0400 (Eastern Daylight Time)","Mon Oct 05 2020 11:41:36 GMT-0400 (Eastern Daylight Time)","Mozilla/5.0 (Windows NT 10.0; Win64; x64) AppleWebKit/537.36 (KHTML, like Gecko) Chrome/85.0.4183.121 Safari/537.36",120,"[0.9, 0.5, 0.1]","[0.8, 0.4, 0.2]","[u'blue', u'black', u'red']","[u'left', u'middle', u'right']","[0.8, 0.4, 0.2]","[u'high', u'low', u'medium']","red",51,"right","medium","True","False",139,5850,NA
"AKC9H6IX5YCG4","Mon Oct 05 2020 11:34:20 GMT-0400 (Eastern Daylight Time)","Mon Oct 05 2020 11:41:36 GMT-0400 (Eastern Daylight Time)","Mozilla/5.0 (Windows NT 10.0; Win64; x64) AppleWebKit/537.36 (KHTML, like Gecko) Chrome/85.0.4183.121 Safari/537.36",121,"[0.9, 0.5, 0.1]","[0.8, 0.4, 0.2]","[u'blue', u'black', u'red']","[u'left', u'middle', u'right']","[0.8, 0.4, 0.2]","[u'low', u'high', u'medium']","red",51,"right","medium","True","False",236,5950,NA
"AKC9H6IX5YCG4","Mon Oct 05 2020 11:34:20 GMT-0400 (Eastern Daylight Time)","Mon Oct 05 2020 11:41:36 GMT-0400 (Eastern Daylight Time)","Mozilla/5.0 (Windows NT 10.0; Win64; x64) AppleWebKit/537.36 (KHTML, like Gecko) Chrome/85.0.4183.121 Safari/537.36",122,"[0.9, 0.5, 0.1]","[0.8, 0.4, 0.2]","[u'blue', u'black', u'red']","[u'left', u'middle', u'right']","[0.8, 0.4, 0.2]","[u'low', u'high', u'medium']","red",51,"right","medium","True","False",219,6050,NA
"AKC9H6IX5YCG4","Mon Oct 05 2020 11:34:20 GMT-0400 (Eastern Daylight Time)","Mon Oct 05 2020 11:41:36 GMT-0400 (Eastern Daylight Time)","Mozilla/5.0 (Windows NT 10.0; Win64; x64) AppleWebKit/537.36 (KHTML, like Gecko) Chrome/85.0.4183.121 Safari/537.36",123,"[0.9, 0.5, 0.1]","[0.8, 0.4, 0.2]","[u'blue', u'black', u'red']","[u'left', u'middle', u'right']","[0.8, 0.4, 0.2]","[u'low', u'high', u'medium']","red",51,"right","medium","False","False",267,6000,NA
"AKC9H6IX5YCG4","Mon Oct 05 2020 11:34:20 GMT-0400 (Eastern Daylight Time)","Mon Oct 05 2020 11:41:36 GMT-0400 (Eastern Daylight Time)","Mozilla/5.0 (Windows NT 10.0; Win64; x64) AppleWebKit/537.36 (KHTML, like Gecko) Chrome/85.0.4183.121 Safari/537.36",124,"[0.9, 0.5, 0.1]","[0.8, 0.4, 0.2]","[u'blue', u'black', u'red']","[u'left', u'middle', u'right']","[0.8, 0.4, 0.2]","[u'low', u'high', u'medium']","blue",49,"left","low","False","False",220,5950,NA
"AKC9H6IX5YCG4","Mon Oct 05 2020 11:34:20 GMT-0400 (Eastern Daylight Time)","Mon Oct 05 2020 11:41:36 GMT-0400 (Eastern Daylight Time)","Mozilla/5.0 (Windows NT 10.0; Win64; x64) AppleWebKit/537.36 (KHTML, like Gecko) Chrome/85.0.4183.121 Safari/537.36",125,"[0.9, 0.5, 0.1]","[0.8, 0.4, 0.2]","[u'blue', u'black', u'red']","[u'left', u'middle', u'right']","[0.8, 0.4, 0.2]","[u'low', u'high', u'medium']","red",51,"right","medium","False","False",219,5900,NA
"AKC9H6IX5YCG4","Mon Oct 05 2020 11:34:20 GMT-0400 (Eastern Daylight Time)","Mon Oct 05 2020 11:41:36 GMT-0400 (Eastern Daylight Time)","Mozilla/5.0 (Windows NT 10.0; Win64; x64) AppleWebKit/537.36 (KHTML, like Gecko) Chrome/85.0.4183.121 Safari/537.36",126,"[0.9, 0.5, 0.1]","[0.8, 0.4, 0.2]","[u'blue', u'black', u'red']","[u'left', u'middle', u'right']","[0.8, 0.4, 0.2]","[u'low', u'high', u'medium']","black",50,"middle","high","True","False",236,6000,NA
"AKC9H6IX5YCG4","Mon Oct 05 2020 11:34:20 GMT-0400 (Eastern Daylight Time)","Mon Oct 05 2020 11:41:36 GMT-0400 (Eastern Daylight Time)","Mozilla/5.0 (Windows NT 10.0; Win64; x64) AppleWebKit/537.36 (KHTML, like Gecko) Chrome/85.0.4183.121 Safari/537.36",127,"[0.9, 0.5, 0.1]","[0.8, 0.4, 0.2]","[u'blue', u'black', u'red']","[u'left', u'middle', u'right']","[0.8, 0.4, 0.2]","[u'low', u'high', u'medium']","black",50,"middle","high","True","False",210,6100,NA
"AKC9H6IX5YCG4","Mon Oct 05 2020 11:34:20 GMT-0400 (Eastern Daylight Time)","Mon Oct 05 2020 11:41:36 GMT-0400 (Eastern Daylight Time)","Mozilla/5.0 (Windows NT 10.0; Win64; x64) AppleWebKit/537.36 (KHTML, like Gecko) Chrome/85.0.4183.121 Safari/537.36",128,"[0.9, 0.5, 0.1]","[0.8, 0.4, 0.2]","[u'blue', u'black', u'red']","[u'left', u'middle', u'right']","[0.8, 0.4, 0.2]","[u'low', u'high', u'medium']","black",50,"middle","high","False","False",218,6050,NA
"AKC9H6IX5YCG4","Mon Oct 05 2020 11:34:20 GMT-0400 (Eastern Daylight Time)","Mon Oct 05 2020 11:41:36 GMT-0400 (Eastern Daylight Time)","Mozilla/5.0 (Windows NT 10.0; Win64; x64) AppleWebKit/537.36 (KHTML, like Gecko) Chrome/85.0.4183.121 Safari/537.36",129,"[0.9, 0.5, 0.1]","[0.8, 0.4, 0.2]","[u'blue', u'black', u'red']","[u'left', u'middle', u'right']","[0.8, 0.4, 0.2]","[u'low', u'high', u'medium']","blue",49,"left","low","True","False",226,6150,NA
"AKC9H6IX5YCG4","Mon Oct 05 2020 11:34:20 GMT-0400 (Eastern Daylight Time)","Mon Oct 05 2020 11:41:36 GMT-0400 (Eastern Daylight Time)","Mozilla/5.0 (Windows NT 10.0; Win64; x64) AppleWebKit/537.36 (KHTML, like Gecko) Chrome/85.0.4183.121 Safari/537.36",130,"[0.9, 0.5, 0.1]","[0.8, 0.4, 0.2]","[u'blue', u'black', u'red']","[u'left', u'middle', u'right']","[0.8, 0.4, 0.2]","[u'low', u'high', u'medium']","blue",49,"left","low","False","False",251,6100,NA
"AKC9H6IX5YCG4","Mon Oct 05 2020 11:34:20 GMT-0400 (Eastern Daylight Time)","Mon Oct 05 2020 11:41:36 GMT-0400 (Eastern Daylight Time)","Mozilla/5.0 (Windows NT 10.0; Win64; x64) AppleWebKit/537.36 (KHTML, like Gecko) Chrome/85.0.4183.121 Safari/537.36",131,"[0.9, 0.5, 0.1]","[0.8, 0.4, 0.2]","[u'blue', u'black', u'red']","[u'left', u'middle', u'right']","[0.8, 0.4, 0.2]","[u'low', u'high', u'medium']","red",51,"right","medium","True","False",171,6200,NA
"AKC9H6IX5YCG4","Mon Oct 05 2020 11:34:20 GMT-0400 (Eastern Daylight Time)","Mon Oct 05 2020 11:41:36 GMT-0400 (Eastern Daylight Time)","Mozilla/5.0 (Windows NT 10.0; Win64; x64) AppleWebKit/537.36 (KHTML, like Gecko) Chrome/85.0.4183.121 Safari/537.36",132,"[0.9, 0.5, 0.1]","[0.8, 0.4, 0.2]","[u'blue', u'black', u'red']","[u'left', u'middle', u'right']","[0.8, 0.4, 0.2]","[u'low', u'high', u'medium']","red",51,"right","medium","False","False",171,6150,NA
"AKC9H6IX5YCG4","Mon Oct 05 2020 11:34:20 GMT-0400 (Eastern Daylight Time)","Mon Oct 05 2020 11:41:36 GMT-0400 (Eastern Daylight Time)","Mozilla/5.0 (Windows NT 10.0; Win64; x64) AppleWebKit/537.36 (KHTML, like Gecko) Chrome/85.0.4183.121 Safari/537.36",133,"[0.9, 0.5, 0.1]","[0.8, 0.4, 0.2]","[u'blue', u'black', u'red']","[u'left', u'middle', u'right']","[0.8, 0.4, 0.2]","[u'low', u'high', u'medium']","black",50,"middle","high","False","False",210,6100,NA
"AKC9H6IX5YCG4","Mon Oct 05 2020 11:34:20 GMT-0400 (Eastern Daylight Time)","Mon Oct 05 2020 11:41:36 GMT-0400 (Eastern Daylight Time)","Mozilla/5.0 (Windows NT 10.0; Win64; x64) AppleWebKit/537.36 (KHTML, like Gecko) Chrome/85.0.4183.121 Safari/537.36",134,"[0.9, 0.5, 0.1]","[0.8, 0.4, 0.2]","[u'blue', u'black', u'red']","[u'left', u'middle', u'right']","[0.8, 0.4, 0.2]","[u'low', u'high', u'medium']","blue",49,"left","low","False","False",252,6050,NA
"AKC9H6IX5YCG4","Mon Oct 05 2020 11:34:20 GMT-0400 (Eastern Daylight Time)","Mon Oct 05 2020 11:41:36 GMT-0400 (Eastern Daylight Time)","Mozilla/5.0 (Windows NT 10.0; Win64; x64) AppleWebKit/537.36 (KHTML, like Gecko) Chrome/85.0.4183.121 Safari/537.36",135,"[0.9, 0.5, 0.1]","[0.8, 0.4, 0.2]","[u'blue', u'black', u'red']","[u'left', u'middle', u'right']","[0.8, 0.4, 0.2]","[u'low', u'high', u'medium']","red",51,"right","medium","False","False",162,6000,NA
"AKC9H6IX5YCG4","Mon Oct 05 2020 11:34:20 GMT-0400 (Eastern Daylight Time)","Mon Oct 05 2020 11:41:36 GMT-0400 (Eastern Daylight Time)","Mozilla/5.0 (Windows NT 10.0; Win64; x64) AppleWebKit/537.36 (KHTML, like Gecko) Chrome/85.0.4183.121 Safari/537.36",136,"[0.9, 0.5, 0.1]","[0.8, 0.4, 0.2]","[u'blue', u'black', u'red']","[u'left', u'middle', u'right']","[0.8, 0.4, 0.2]","[u'low', u'high', u'medium']","red",51,"right","medium","False","False",27,5950,NA
"AKC9H6IX5YCG4","Mon Oct 05 2020 11:34:20 GMT-0400 (Eastern Daylight Time)","Mon Oct 05 2020 11:41:36 GMT-0400 (Eastern Daylight Time)","Mozilla/5.0 (Windows NT 10.0; Win64; x64) AppleWebKit/537.36 (KHTML, like Gecko) Chrome/85.0.4183.121 Safari/537.36",137,"[0.9, 0.5, 0.1]","[0.8, 0.4, 0.2]","[u'blue', u'black', u'red']","[u'left', u'middle', u'right']","[0.8, 0.4, 0.2]","[u'low', u'high', u'medium']","black",50,"middle","high","True","False",108,6050,NA
"AKC9H6IX5YCG4","Mon Oct 05 2020 11:34:20 GMT-0400 (Eastern Daylight Time)","Mon Oct 05 2020 11:41:36 GMT-0400 (Eastern Daylight Time)","Mozilla/5.0 (Windows NT 10.0; Win64; x64) AppleWebKit/537.36 (KHTML, like Gecko) Chrome/85.0.4183.121 Safari/537.36",138,"[0.9, 0.5, 0.1]","[0.8, 0.4, 0.2]","[u'blue', u'black', u'red']","[u'left', u'middle', u'right']","[0.8, 0.4, 0.2]","[u'low', u'high', u'medium']","black",50,"middle","high","True","False",212,6150,NA
"AKC9H6IX5YCG4","Mon Oct 05 2020 11:34:20 GMT-0400 (Eastern Daylight Time)","Mon Oct 05 2020 11:41:36 GMT-0400 (Eastern Daylight Time)","Mozilla/5.0 (Windows NT 10.0; Win64; x64) AppleWebKit/537.36 (KHTML, like Gecko) Chrome/85.0.4183.121 Safari/537.36",139,"[0.9, 0.5, 0.1]","[0.8, 0.4, 0.2]","[u'blue', u'black', u'red']","[u'left', u'middle', u'right']","[0.8, 0.4, 0.2]","[u'low', u'high', u'medium']","black",50,"middle","high","True","False",203,6250,NA
"AKC9H6IX5YCG4","Mon Oct 05 2020 11:34:20 GMT-0400 (Eastern Daylight Time)","Mon Oct 05 2020 11:41:36 GMT-0400 (Eastern Daylight Time)","Mozilla/5.0 (Windows NT 10.0; Win64; x64) AppleWebKit/537.36 (KHTML, like Gecko) Chrome/85.0.4183.121 Safari/537.36",140,"[0.9, 0.5, 0.1]","[0.8, 0.4, 0.2]","[u'blue', u'black', u'red']","[u'left', u'middle', u'right']","[0.8, 0.4, 0.2]","[u'low', u'high', u'medium']","black",50,"middle","high","True","False",203,6350,NA
"AKC9H6IX5YCG4","Mon Oct 05 2020 11:34:20 GMT-0400 (Eastern Daylight Time)","Mon Oct 05 2020 11:41:36 GMT-0400 (Eastern Daylight Time)","Mozilla/5.0 (Windows NT 10.0; Win64; x64) AppleWebKit/537.36 (KHTML, like Gecko) Chrome/85.0.4183.121 Safari/537.36",141,"[0.9, 0.5, 0.1]","[0.8, 0.4, 0.2]","[u'blue', u'black', u'red']","[u'left', u'middle', u'right']","[0.8, 0.4, 0.2]","[u'low', u'high', u'medium']","black",50,"middle","high","False","False",194,6300,NA
"AKC9H6IX5YCG4","Mon Oct 05 2020 11:34:20 GMT-0400 (Eastern Daylight Time)","Mon Oct 05 2020 11:41:36 GMT-0400 (Eastern Daylight Time)","Mozilla/5.0 (Windows NT 10.0; Win64; x64) AppleWebKit/537.36 (KHTML, like Gecko) Chrome/85.0.4183.121 Safari/537.36",142,"[0.9, 0.5, 0.1]","[0.8, 0.4, 0.2]","[u'blue', u'black', u'red']","[u'left', u'middle', u'right']","[0.8, 0.4, 0.2]","[u'low', u'high', u'medium']","black",50,"middle","high","True","False",219,6400,NA
"AKC9H6IX5YCG4","Mon Oct 05 2020 11:34:20 GMT-0400 (Eastern Daylight Time)","Mon Oct 05 2020 11:41:36 GMT-0400 (Eastern Daylight Time)","Mozilla/5.0 (Windows NT 10.0; Win64; x64) AppleWebKit/537.36 (KHTML, like Gecko) Chrome/85.0.4183.121 Safari/537.36",143,"[0.9, 0.5, 0.1]","[0.8, 0.4, 0.2]","[u'blue', u'black', u'red']","[u'left', u'middle', u'right']","[0.8, 0.4, 0.2]","[u'low', u'high', u'medium']","black",50,"middle","high","False","False",188,6350,NA
"AKC9H6IX5YCG4","Mon Oct 05 2020 11:34:20 GMT-0400 (Eastern Daylight Time)","Mon Oct 05 2020 11:41:36 GMT-0400 (Eastern Daylight Time)","Mozilla/5.0 (Windows NT 10.0; Win64; x64) AppleWebKit/537.36 (KHTML, like Gecko) Chrome/85.0.4183.121 Safari/537.36",144,"[0.9, 0.5, 0.1]","[0.8, 0.4, 0.2]","[u'blue', u'black', u'red']","[u'left', u'middle', u'right']","[0.8, 0.4, 0.2]","[u'low', u'high', u'medium']","red",51,"right","medium","False","False",226,6300,NA
"AKC9H6IX5YCG4","Mon Oct 05 2020 11:34:20 GMT-0400 (Eastern Daylight Time)","Mon Oct 05 2020 11:41:36 GMT-0400 (Eastern Daylight Time)","Mozilla/5.0 (Windows NT 10.0; Win64; x64) AppleWebKit/537.36 (KHTML, like Gecko) Chrome/85.0.4183.121 Safari/537.36",145,"[0.9, 0.5, 0.1]","[0.8, 0.4, 0.2]","[u'blue', u'black', u'red']","[u'left', u'middle', u'right']","[0.8, 0.4, 0.2]","[u'low', u'high', u'medium']","blue",49,"left","low","False","False",174,6250,NA
"AKC9H6IX5YCG4","Mon Oct 05 2020 11:34:20 GMT-0400 (Eastern Daylight Time)","Mon Oct 05 2020 11:41:36 GMT-0400 (Eastern Daylight Time)","Mozilla/5.0 (Windows NT 10.0; Win64; x64) AppleWebKit/537.36 (KHTML, like Gecko) Chrome/85.0.4183.121 Safari/537.36",146,"[0.9, 0.5, 0.1]","[0.8, 0.4, 0.2]","[u'blue', u'black', u'red']","[u'left', u'middle', u'right']","[0.8, 0.4, 0.2]","[u'low', u'high', u'medium']","blue",49,"left","low","False","False",105,6200,NA
"AKC9H6IX5YCG4","Mon Oct 05 2020 11:34:20 GMT-0400 (Eastern Daylight Time)","Mon Oct 05 2020 11:41:36 GMT-0400 (Eastern Daylight Time)","Mozilla/5.0 (Windows NT 10.0; Win64; x64) AppleWebKit/537.36 (KHTML, like Gecko) Chrome/85.0.4183.121 Safari/537.36",147,"[0.9, 0.5, 0.1]","[0.8, 0.4, 0.2]","[u'blue', u'black', u'red']","[u'left', u'middle', u'right']","[0.8, 0.4, 0.2]","[u'low', u'high', u'medium']","red",51,"right","medium","True","False",196,6300,NA
"AKC9H6IX5YCG4","Mon Oct 05 2020 11:34:20 GMT-0400 (Eastern Daylight Time)","Mon Oct 05 2020 11:41:36 GMT-0400 (Eastern Daylight Time)","Mozilla/5.0 (Windows NT 10.0; Win64; x64) AppleWebKit/537.36 (KHTML, like Gecko) Chrome/85.0.4183.121 Safari/537.36",148,"[0.9, 0.5, 0.1]","[0.8, 0.4, 0.2]","[u'blue', u'black', u'red']","[u'left', u'middle', u'right']","[0.8, 0.4, 0.2]","[u'low', u'high', u'medium']","red",51,"right","medium","True","False",195,6400,NA
"AKC9H6IX5YCG4","Mon Oct 05 2020 11:34:20 GMT-0400 (Eastern Daylight Time)","Mon Oct 05 2020 11:41:36 GMT-0400 (Eastern Daylight Time)","Mozilla/5.0 (Windows NT 10.0; Win64; x64) AppleWebKit/537.36 (KHTML, like Gecko) Chrome/85.0.4183.121 Safari/537.36",149,"[0.9, 0.5, 0.1]","[0.8, 0.4, 0.2]","[u'blue', u'black', u'red']","[u'left', u'middle', u'right']","[0.8, 0.4, 0.2]","[u'low', u'high', u'medium']","red",51,"right","medium","False","False",194,6350,NA
"AKC9H6IX5YCG4","Mon Oct 05 2020 11:34:20 GMT-0400 (Eastern Daylight Time)","Mon Oct 05 2020 11:41:36 GMT-0400 (Eastern Daylight Time)","Mozilla/5.0 (Windows NT 10.0; Win64; x64) AppleWebKit/537.36 (KHTML, like Gecko) Chrome/85.0.4183.121 Safari/537.36",150,"[0.9, 0.5, 0.1]","[0.8, 0.4, 0.2]","[u'blue', u'black', u'red']","[u'left', u'middle', u'right']","[0.8, 0.4, 0.2]","[u'low', u'high', u'medium']","red",51,"right","medium","True","False",131,6450,NA
"AKC9H6IX5YCG4","Mon Oct 05 2020 11:34:20 GMT-0400 (Eastern Daylight Time)","Mon Oct 05 2020 11:41:36 GMT-0400 (Eastern Daylight Time)","Mozilla/5.0 (Windows NT 10.0; Win64; x64) AppleWebKit/537.36 (KHTML, like Gecko) Chrome/85.0.4183.121 Safari/537.36",151,"[0.9, 0.5, 0.1]","[0.8, 0.4, 0.2]","[u'blue', u'black', u'red']","[u'left', u'middle', u'right']","[0.8, 0.4, 0.2]","[u'low', u'high', u'medium']","red",51,"right","medium","False","False",202,6400,NA
"AKC9H6IX5YCG4","Mon Oct 05 2020 11:34:20 GMT-0400 (Eastern Daylight Time)","Mon Oct 05 2020 11:41:36 GMT-0400 (Eastern Daylight Time)","Mozilla/5.0 (Windows NT 10.0; Win64; x64) AppleWebKit/537.36 (KHTML, like Gecko) Chrome/85.0.4183.121 Safari/537.36",152,"[0.9, 0.5, 0.1]","[0.8, 0.4, 0.2]","[u'blue', u'black', u'red']","[u'left', u'middle', u'right']","[0.8, 0.4, 0.2]","[u'low', u'high', u'medium']","blue",49,"left","low","False","False",282,6350,NA
"AKC9H6IX5YCG4","Mon Oct 05 2020 11:34:20 GMT-0400 (Eastern Daylight Time)","Mon Oct 05 2020 11:41:36 GMT-0400 (Eastern Daylight Time)","Mozilla/5.0 (Windows NT 10.0; Win64; x64) AppleWebKit/537.36 (KHTML, like Gecko) Chrome/85.0.4183.121 Safari/537.36",153,"[0.9, 0.5, 0.1]","[0.8, 0.4, 0.2]","[u'blue', u'black', u'red']","[u'left', u'middle', u'right']","[0.8, 0.4, 0.2]","[u'low', u'high', u'medium']","blue",49,"left","low","False","False",116,6300,NA
"AKC9H6IX5YCG4","Mon Oct 05 2020 11:34:20 GMT-0400 (Eastern Daylight Time)","Mon Oct 05 2020 11:41:36 GMT-0400 (Eastern Daylight Time)","Mozilla/5.0 (Windows NT 10.0; Win64; x64) AppleWebKit/537.36 (KHTML, like Gecko) Chrome/85.0.4183.121 Safari/537.36",154,"[0.9, 0.5, 0.1]","[0.8, 0.4, 0.2]","[u'blue', u'black', u'red']","[u'left', u'middle', u'right']","[0.8, 0.4, 0.2]","[u'low', u'high', u'medium']","black",50,"middle","high","True","False",130,6400,NA
"AKC9H6IX5YCG4","Mon Oct 05 2020 11:34:20 GMT-0400 (Eastern Daylight Time)","Mon Oct 05 2020 11:41:36 GMT-0400 (Eastern Daylight Time)","Mozilla/5.0 (Windows NT 10.0; Win64; x64) AppleWebKit/537.36 (KHTML, like Gecko) Chrome/85.0.4183.121 Safari/537.36",155,"[0.9, 0.5, 0.1]","[0.8, 0.4, 0.2]","[u'blue', u'black', u'red']","[u'left', u'middle', u'right']","[0.8, 0.4, 0.2]","[u'low', u'high', u'medium']","black",50,"middle","high","True","False",197,6500,NA
"AKC9H6IX5YCG4","Mon Oct 05 2020 11:34:20 GMT-0400 (Eastern Daylight Time)","Mon Oct 05 2020 11:41:36 GMT-0400 (Eastern Daylight Time)","Mozilla/5.0 (Windows NT 10.0; Win64; x64) AppleWebKit/537.36 (KHTML, like Gecko) Chrome/85.0.4183.121 Safari/537.36",156,"[0.9, 0.5, 0.1]","[0.8, 0.4, 0.2]","[u'blue', u'black', u'red']","[u'left', u'middle', u'right']","[0.8, 0.4, 0.2]","[u'low', u'high', u'medium']","black",50,"middle","high","True","False",201,6600,NA
"AKC9H6IX5YCG4","Mon Oct 05 2020 11:34:20 GMT-0400 (Eastern Daylight Time)","Mon Oct 05 2020 11:41:36 GMT-0400 (Eastern Daylight Time)","Mozilla/5.0 (Windows NT 10.0; Win64; x64) AppleWebKit/537.36 (KHTML, like Gecko) Chrome/85.0.4183.121 Safari/537.36",157,"[0.9, 0.5, 0.1]","[0.8, 0.4, 0.2]","[u'blue', u'black', u'red']","[u'left', u'middle', u'right']","[0.8, 0.4, 0.2]","[u'low', u'high', u'medium']","black",50,"middle","high","False","False",277,6550,NA
"AKC9H6IX5YCG4","Mon Oct 05 2020 11:34:20 GMT-0400 (Eastern Daylight Time)","Mon Oct 05 2020 11:41:36 GMT-0400 (Eastern Daylight Time)","Mozilla/5.0 (Windows NT 10.0; Win64; x64) AppleWebKit/537.36 (KHTML, like Gecko) Chrome/85.0.4183.121 Safari/537.36",158,"[0.9, 0.5, 0.1]","[0.8, 0.4, 0.2]","[u'blue', u'black', u'red']","[u'left', u'middle', u'right']","[0.8, 0.4, 0.2]","[u'low', u'high', u'medium']","black",50,"middle","high","True","False",282,6650,NA
"AKC9H6IX5YCG4","Mon Oct 05 2020 11:34:20 GMT-0400 (Eastern Daylight Time)","Mon Oct 05 2020 11:41:36 GMT-0400 (Eastern Daylight Time)","Mozilla/5.0 (Windows NT 10.0; Win64; x64) AppleWebKit/537.36 (KHTML, like Gecko) Chrome/85.0.4183.121 Safari/537.36",159,"[0.9, 0.5, 0.1]","[0.8, 0.4, 0.2]","[u'blue', u'black', u'red']","[u'left', u'middle', u'right']","[0.8, 0.4, 0.2]","[u'low', u'high', u'medium']","black",50,"middle","high","False","False",212,6600,NA
"AKC9H6IX5YCG4","Mon Oct 05 2020 11:34:20 GMT-0400 (Eastern Daylight Time)","Mon Oct 05 2020 11:41:36 GMT-0400 (Eastern Daylight Time)","Mozilla/5.0 (Windows NT 10.0; Win64; x64) AppleWebKit/537.36 (KHTML, like Gecko) Chrome/85.0.4183.121 Safari/537.36",160,"[0.9, 0.5, 0.1]","[0.8, 0.4, 0.2]","[u'blue', u'black', u'red']","[u'left', u'middle', u'right']","[0.8, 0.4, 0.2]","[u'low', u'high', u'medium']","red",51,"right","medium","False","False",187,6550,NA
