"src_subject_id","start_time","end_time","browser","index","first_half_probabilities","second_half_probabilities","deck_color","deck_position","deck_probabilities","deck_contingencies","response_color","key_press","response_position","response_probability","reward_type","trial_type","rt","reward_tally","exclusion_reason"
"A1Q6VY3C3CEOA0","Mon Oct 05 2020 08:54:36 GMT-0700 (Mountain Standard Time)","Mon Oct 05 2020 09:14:25 GMT-0700 (Mountain Standard Time)","Mozilla/5.0 (Windows NT 10.0; Win64; x64) AppleWebKit/537.36 (KHTML, like Gecko) Chrome/85.0.4183.121 Safari/537.36",1,"[0.9, 0.5, 0.1]","[0.8, 0.4, 0.2]","[u'black', u'red', u'blue']","[u'left', u'middle', u'right']","[0.9, 0.5, 0.1]","[u'medium', u'high', u'low']","black",49,"left","medium","False","False",3291,-50,NA
"A1Q6VY3C3CEOA0","Mon Oct 05 2020 08:54:36 GMT-0700 (Mountain Standard Time)","Mon Oct 05 2020 09:14:25 GMT-0700 (Mountain Standard Time)","Mozilla/5.0 (Windows NT 10.0; Win64; x64) AppleWebKit/537.36 (KHTML, like Gecko) Chrome/85.0.4183.121 Safari/537.36",2,"[0.9, 0.5, 0.1]","[0.8, 0.4, 0.2]","[u'black', u'red', u'blue']","[u'left', u'middle', u'right']","[0.9, 0.5, 0.1]","[u'medium', u'high', u'low']","red",50,"middle","high","True","False",13326,50,NA
"A1Q6VY3C3CEOA0","Mon Oct 05 2020 08:54:36 GMT-0700 (Mountain Standard Time)","Mon Oct 05 2020 09:14:25 GMT-0700 (Mountain Standard Time)","Mozilla/5.0 (Windows NT 10.0; Win64; x64) AppleWebKit/537.36 (KHTML, like Gecko) Chrome/85.0.4183.121 Safari/537.36",3,"[0.9, 0.5, 0.1]","[0.8, 0.4, 0.2]","[u'black', u'red', u'blue']","[u'left', u'middle', u'right']","[0.9, 0.5, 0.1]","[u'medium', u'high', u'low']","red",50,"middle","high","True","False",8339,150,NA
"A1Q6VY3C3CEOA0","Mon Oct 05 2020 08:54:36 GMT-0700 (Mountain Standard Time)","Mon Oct 05 2020 09:14:25 GMT-0700 (Mountain Standard Time)","Mozilla/5.0 (Windows NT 10.0; Win64; x64) AppleWebKit/537.36 (KHTML, like Gecko) Chrome/85.0.4183.121 Safari/537.36",4,"[0.9, 0.5, 0.1]","[0.8, 0.4, 0.2]","[u'black', u'red', u'blue']","[u'left', u'middle', u'right']","[0.9, 0.5, 0.1]","[u'medium', u'high', u'low']","red",50,"middle","high","True","False",5012,250,NA
"A1Q6VY3C3CEOA0","Mon Oct 05 2020 08:54:36 GMT-0700 (Mountain Standard Time)","Mon Oct 05 2020 09:14:25 GMT-0700 (Mountain Standard Time)","Mozilla/5.0 (Windows NT 10.0; Win64; x64) AppleWebKit/537.36 (KHTML, like Gecko) Chrome/85.0.4183.121 Safari/537.36",5,"[0.9, 0.5, 0.1]","[0.8, 0.4, 0.2]","[u'black', u'red', u'blue']","[u'left', u'middle', u'right']","[0.9, 0.5, 0.1]","[u'medium', u'high', u'low']","red",50,"middle","high","True","False",3887,350,NA
"A1Q6VY3C3CEOA0","Mon Oct 05 2020 08:54:36 GMT-0700 (Mountain Standard Time)","Mon Oct 05 2020 09:14:25 GMT-0700 (Mountain Standard Time)","Mozilla/5.0 (Windows NT 10.0; Win64; x64) AppleWebKit/537.36 (KHTML, like Gecko) Chrome/85.0.4183.121 Safari/537.36",6,"[0.9, 0.5, 0.1]","[0.8, 0.4, 0.2]","[u'black', u'red', u'blue']","[u'left', u'middle', u'right']","[0.9, 0.5, 0.1]","[u'medium', u'high', u'low']","red",50,"middle","high","True","False",3239,450,NA
"A1Q6VY3C3CEOA0","Mon Oct 05 2020 08:54:36 GMT-0700 (Mountain Standard Time)","Mon Oct 05 2020 09:14:25 GMT-0700 (Mountain Standard Time)","Mozilla/5.0 (Windows NT 10.0; Win64; x64) AppleWebKit/537.36 (KHTML, like Gecko) Chrome/85.0.4183.121 Safari/537.36",7,"[0.9, 0.5, 0.1]","[0.8, 0.4, 0.2]","[u'black', u'red', u'blue']","[u'left', u'middle', u'right']","[0.9, 0.5, 0.1]","[u'medium', u'high', u'low']","red",50,"middle","high","True","False",4280,550,NA
"A1Q6VY3C3CEOA0","Mon Oct 05 2020 08:54:36 GMT-0700 (Mountain Standard Time)","Mon Oct 05 2020 09:14:25 GMT-0700 (Mountain Standard Time)","Mozilla/5.0 (Windows NT 10.0; Win64; x64) AppleWebKit/537.36 (KHTML, like Gecko) Chrome/85.0.4183.121 Safari/537.36",8,"[0.9, 0.5, 0.1]","[0.8, 0.4, 0.2]","[u'black', u'red', u'blue']","[u'left', u'middle', u'right']","[0.9, 0.5, 0.1]","[u'medium', u'high', u'low']","red",50,"middle","high","True","False",4329,650,NA
"A1Q6VY3C3CEOA0","Mon Oct 05 2020 08:54:36 GMT-0700 (Mountain Standard Time)","Mon Oct 05 2020 09:14:25 GMT-0700 (Mountain Standard Time)","Mozilla/5.0 (Windows NT 10.0; Win64; x64) AppleWebKit/537.36 (KHTML, like Gecko) Chrome/85.0.4183.121 Safari/537.36",9,"[0.9, 0.5, 0.1]","[0.8, 0.4, 0.2]","[u'black', u'red', u'blue']","[u'left', u'middle', u'right']","[0.9, 0.5, 0.1]","[u'medium', u'high', u'low']","red",50,"middle","high","True","False",2726,750,NA
"A1Q6VY3C3CEOA0","Mon Oct 05 2020 08:54:36 GMT-0700 (Mountain Standard Time)","Mon Oct 05 2020 09:14:25 GMT-0700 (Mountain Standard Time)","Mozilla/5.0 (Windows NT 10.0; Win64; x64) AppleWebKit/537.36 (KHTML, like Gecko) Chrome/85.0.4183.121 Safari/537.36",10,"[0.9, 0.5, 0.1]","[0.8, 0.4, 0.2]","[u'black', u'red', u'blue']","[u'left', u'middle', u'right']","[0.9, 0.5, 0.1]","[u'medium', u'high', u'low']","red",50,"middle","high","True","True",2676,850,NA
"A1Q6VY3C3CEOA0","Mon Oct 05 2020 08:54:36 GMT-0700 (Mountain Standard Time)","Mon Oct 05 2020 09:14:25 GMT-0700 (Mountain Standard Time)","Mozilla/5.0 (Windows NT 10.0; Win64; x64) AppleWebKit/537.36 (KHTML, like Gecko) Chrome/85.0.4183.121 Safari/537.36",11,"[0.9, 0.5, 0.1]","[0.8, 0.4, 0.2]","[u'black', u'red', u'blue']","[u'left', u'middle', u'right']","[0.9, 0.5, 0.1]","[u'low', u'medium', u'high']","red",50,"middle","medium","False","False",2116,800,NA
"A1Q6VY3C3CEOA0","Mon Oct 05 2020 08:54:36 GMT-0700 (Mountain Standard Time)","Mon Oct 05 2020 09:14:25 GMT-0700 (Mountain Standard Time)","Mozilla/5.0 (Windows NT 10.0; Win64; x64) AppleWebKit/537.36 (KHTML, like Gecko) Chrome/85.0.4183.121 Safari/537.36",12,"[0.9, 0.5, 0.1]","[0.8, 0.4, 0.2]","[u'black', u'red', u'blue']","[u'left', u'middle', u'right']","[0.9, 0.5, 0.1]","[u'low', u'medium', u'high']","red",50,"middle","medium","True","False",6160,900,NA
"A1Q6VY3C3CEOA0","Mon Oct 05 2020 08:54:36 GMT-0700 (Mountain Standard Time)","Mon Oct 05 2020 09:14:25 GMT-0700 (Mountain Standard Time)","Mozilla/5.0 (Windows NT 10.0; Win64; x64) AppleWebKit/537.36 (KHTML, like Gecko) Chrome/85.0.4183.121 Safari/537.36",13,"[0.9, 0.5, 0.1]","[0.8, 0.4, 0.2]","[u'black', u'red', u'blue']","[u'left', u'middle', u'right']","[0.9, 0.5, 0.1]","[u'low', u'medium', u'high']","red",50,"middle","medium","True","False",3672,1000,NA
"A1Q6VY3C3CEOA0","Mon Oct 05 2020 08:54:36 GMT-0700 (Mountain Standard Time)","Mon Oct 05 2020 09:14:25 GMT-0700 (Mountain Standard Time)","Mozilla/5.0 (Windows NT 10.0; Win64; x64) AppleWebKit/537.36 (KHTML, like Gecko) Chrome/85.0.4183.121 Safari/537.36",14,"[0.9, 0.5, 0.1]","[0.8, 0.4, 0.2]","[u'black', u'red', u'blue']","[u'left', u'middle', u'right']","[0.9, 0.5, 0.1]","[u'low', u'medium', u'high']","red",50,"middle","medium","True","False",2609,1100,NA
"A1Q6VY3C3CEOA0","Mon Oct 05 2020 08:54:36 GMT-0700 (Mountain Standard Time)","Mon Oct 05 2020 09:14:25 GMT-0700 (Mountain Standard Time)","Mozilla/5.0 (Windows NT 10.0; Win64; x64) AppleWebKit/537.36 (KHTML, like Gecko) Chrome/85.0.4183.121 Safari/537.36",15,"[0.9, 0.5, 0.1]","[0.8, 0.4, 0.2]","[u'black', u'red', u'blue']","[u'left', u'middle', u'right']","[0.9, 0.5, 0.1]","[u'low', u'medium', u'high']","red",50,"middle","medium","True","False",5921,1200,NA
"A1Q6VY3C3CEOA0","Mon Oct 05 2020 08:54:36 GMT-0700 (Mountain Standard Time)","Mon Oct 05 2020 09:14:25 GMT-0700 (Mountain Standard Time)","Mozilla/5.0 (Windows NT 10.0; Win64; x64) AppleWebKit/537.36 (KHTML, like Gecko) Chrome/85.0.4183.121 Safari/537.36",16,"[0.9, 0.5, 0.1]","[0.8, 0.4, 0.2]","[u'black', u'red', u'blue']","[u'left', u'middle', u'right']","[0.9, 0.5, 0.1]","[u'low', u'medium', u'high']","red",50,"middle","medium","True","False",1620,1300,NA
"A1Q6VY3C3CEOA0","Mon Oct 05 2020 08:54:36 GMT-0700 (Mountain Standard Time)","Mon Oct 05 2020 09:14:25 GMT-0700 (Mountain Standard Time)","Mozilla/5.0 (Windows NT 10.0; Win64; x64) AppleWebKit/537.36 (KHTML, like Gecko) Chrome/85.0.4183.121 Safari/537.36",17,"[0.9, 0.5, 0.1]","[0.8, 0.4, 0.2]","[u'black', u'red', u'blue']","[u'left', u'middle', u'right']","[0.9, 0.5, 0.1]","[u'low', u'medium', u'high']","red",50,"middle","medium","True","False",1589,1400,NA
"A1Q6VY3C3CEOA0","Mon Oct 05 2020 08:54:36 GMT-0700 (Mountain Standard Time)","Mon Oct 05 2020 09:14:25 GMT-0700 (Mountain Standard Time)","Mozilla/5.0 (Windows NT 10.0; Win64; x64) AppleWebKit/537.36 (KHTML, like Gecko) Chrome/85.0.4183.121 Safari/537.36",18,"[0.9, 0.5, 0.1]","[0.8, 0.4, 0.2]","[u'black', u'red', u'blue']","[u'left', u'middle', u'right']","[0.9, 0.5, 0.1]","[u'low', u'medium', u'high']","red",50,"middle","medium","False","False",1708,1350,NA
"A1Q6VY3C3CEOA0","Mon Oct 05 2020 08:54:36 GMT-0700 (Mountain Standard Time)","Mon Oct 05 2020 09:14:25 GMT-0700 (Mountain Standard Time)","Mozilla/5.0 (Windows NT 10.0; Win64; x64) AppleWebKit/537.36 (KHTML, like Gecko) Chrome/85.0.4183.121 Safari/537.36",19,"[0.9, 0.5, 0.1]","[0.8, 0.4, 0.2]","[u'black', u'red', u'blue']","[u'left', u'middle', u'right']","[0.9, 0.5, 0.1]","[u'low', u'medium', u'high']","red",50,"middle","medium","True","False",2955,1450,NA
"A1Q6VY3C3CEOA0","Mon Oct 05 2020 08:54:36 GMT-0700 (Mountain Standard Time)","Mon Oct 05 2020 09:14:25 GMT-0700 (Mountain Standard Time)","Mozilla/5.0 (Windows NT 10.0; Win64; x64) AppleWebKit/537.36 (KHTML, like Gecko) Chrome/85.0.4183.121 Safari/537.36",20,"[0.9, 0.5, 0.1]","[0.8, 0.4, 0.2]","[u'black', u'red', u'blue']","[u'left', u'middle', u'right']","[0.9, 0.5, 0.1]","[u'low', u'medium', u'high']","red",50,"middle","medium","False","False",3549,1400,NA
"A1Q6VY3C3CEOA0","Mon Oct 05 2020 08:54:36 GMT-0700 (Mountain Standard Time)","Mon Oct 05 2020 09:14:25 GMT-0700 (Mountain Standard Time)","Mozilla/5.0 (Windows NT 10.0; Win64; x64) AppleWebKit/537.36 (KHTML, like Gecko) Chrome/85.0.4183.121 Safari/537.36",21,"[0.9, 0.5, 0.1]","[0.8, 0.4, 0.2]","[u'black', u'red', u'blue']","[u'left', u'middle', u'right']","[0.9, 0.5, 0.1]","[u'low', u'medium', u'high']","red",50,"middle","medium","True","False",2864,1500,NA
"A1Q6VY3C3CEOA0","Mon Oct 05 2020 08:54:36 GMT-0700 (Mountain Standard Time)","Mon Oct 05 2020 09:14:25 GMT-0700 (Mountain Standard Time)","Mozilla/5.0 (Windows NT 10.0; Win64; x64) AppleWebKit/537.36 (KHTML, like Gecko) Chrome/85.0.4183.121 Safari/537.36",22,"[0.9, 0.5, 0.1]","[0.8, 0.4, 0.2]","[u'black', u'red', u'blue']","[u'left', u'middle', u'right']","[0.9, 0.5, 0.1]","[u'low', u'medium', u'high']","red",50,"middle","medium","True","False",2602,1600,NA
"A1Q6VY3C3CEOA0","Mon Oct 05 2020 08:54:36 GMT-0700 (Mountain Standard Time)","Mon Oct 05 2020 09:14:25 GMT-0700 (Mountain Standard Time)","Mozilla/5.0 (Windows NT 10.0; Win64; x64) AppleWebKit/537.36 (KHTML, like Gecko) Chrome/85.0.4183.121 Safari/537.36",23,"[0.9, 0.5, 0.1]","[0.8, 0.4, 0.2]","[u'black', u'red', u'blue']","[u'left', u'middle', u'right']","[0.9, 0.5, 0.1]","[u'low', u'medium', u'high']","red",50,"middle","medium","False","False",2203,1550,NA
"A1Q6VY3C3CEOA0","Mon Oct 05 2020 08:54:36 GMT-0700 (Mountain Standard Time)","Mon Oct 05 2020 09:14:25 GMT-0700 (Mountain Standard Time)","Mozilla/5.0 (Windows NT 10.0; Win64; x64) AppleWebKit/537.36 (KHTML, like Gecko) Chrome/85.0.4183.121 Safari/537.36",24,"[0.9, 0.5, 0.1]","[0.8, 0.4, 0.2]","[u'black', u'red', u'blue']","[u'left', u'middle', u'right']","[0.9, 0.5, 0.1]","[u'low', u'medium', u'high']","red",50,"middle","medium","False","False",4624,1500,NA
"A1Q6VY3C3CEOA0","Mon Oct 05 2020 08:54:36 GMT-0700 (Mountain Standard Time)","Mon Oct 05 2020 09:14:25 GMT-0700 (Mountain Standard Time)","Mozilla/5.0 (Windows NT 10.0; Win64; x64) AppleWebKit/537.36 (KHTML, like Gecko) Chrome/85.0.4183.121 Safari/537.36",25,"[0.9, 0.5, 0.1]","[0.8, 0.4, 0.2]","[u'black', u'red', u'blue']","[u'left', u'middle', u'right']","[0.9, 0.5, 0.1]","[u'low', u'medium', u'high']","blue",51,"right","high","False","False",4391,1450,NA
"A1Q6VY3C3CEOA0","Mon Oct 05 2020 08:54:36 GMT-0700 (Mountain Standard Time)","Mon Oct 05 2020 09:14:25 GMT-0700 (Mountain Standard Time)","Mozilla/5.0 (Windows NT 10.0; Win64; x64) AppleWebKit/537.36 (KHTML, like Gecko) Chrome/85.0.4183.121 Safari/537.36",26,"[0.9, 0.5, 0.1]","[0.8, 0.4, 0.2]","[u'black', u'red', u'blue']","[u'left', u'middle', u'right']","[0.9, 0.5, 0.1]","[u'low', u'medium', u'high']","black",49,"left","low","False","False",5156,1400,NA
"A1Q6VY3C3CEOA0","Mon Oct 05 2020 08:54:36 GMT-0700 (Mountain Standard Time)","Mon Oct 05 2020 09:14:25 GMT-0700 (Mountain Standard Time)","Mozilla/5.0 (Windows NT 10.0; Win64; x64) AppleWebKit/537.36 (KHTML, like Gecko) Chrome/85.0.4183.121 Safari/537.36",27,"[0.9, 0.5, 0.1]","[0.8, 0.4, 0.2]","[u'black', u'red', u'blue']","[u'left', u'middle', u'right']","[0.9, 0.5, 0.1]","[u'low', u'medium', u'high']","red",50,"middle","medium","False","False",2398,1350,NA
"A1Q6VY3C3CEOA0","Mon Oct 05 2020 08:54:36 GMT-0700 (Mountain Standard Time)","Mon Oct 05 2020 09:14:25 GMT-0700 (Mountain Standard Time)","Mozilla/5.0 (Windows NT 10.0; Win64; x64) AppleWebKit/537.36 (KHTML, like Gecko) Chrome/85.0.4183.121 Safari/537.36",28,"[0.9, 0.5, 0.1]","[0.8, 0.4, 0.2]","[u'black', u'red', u'blue']","[u'left', u'middle', u'right']","[0.9, 0.5, 0.1]","[u'low', u'medium', u'high']","red",50,"middle","medium","True","False",2457,1450,NA
"A1Q6VY3C3CEOA0","Mon Oct 05 2020 08:54:36 GMT-0700 (Mountain Standard Time)","Mon Oct 05 2020 09:14:25 GMT-0700 (Mountain Standard Time)","Mozilla/5.0 (Windows NT 10.0; Win64; x64) AppleWebKit/537.36 (KHTML, like Gecko) Chrome/85.0.4183.121 Safari/537.36",29,"[0.9, 0.5, 0.1]","[0.8, 0.4, 0.2]","[u'black', u'red', u'blue']","[u'left', u'middle', u'right']","[0.9, 0.5, 0.1]","[u'low', u'medium', u'high']","red",50,"middle","medium","False","False",1633,1400,NA
"A1Q6VY3C3CEOA0","Mon Oct 05 2020 08:54:36 GMT-0700 (Mountain Standard Time)","Mon Oct 05 2020 09:14:25 GMT-0700 (Mountain Standard Time)","Mozilla/5.0 (Windows NT 10.0; Win64; x64) AppleWebKit/537.36 (KHTML, like Gecko) Chrome/85.0.4183.121 Safari/537.36",30,"[0.9, 0.5, 0.1]","[0.8, 0.4, 0.2]","[u'black', u'red', u'blue']","[u'left', u'middle', u'right']","[0.9, 0.5, 0.1]","[u'low', u'medium', u'high']","red",50,"middle","medium","False","False",2195,1350,NA
"A1Q6VY3C3CEOA0","Mon Oct 05 2020 08:54:36 GMT-0700 (Mountain Standard Time)","Mon Oct 05 2020 09:14:25 GMT-0700 (Mountain Standard Time)","Mozilla/5.0 (Windows NT 10.0; Win64; x64) AppleWebKit/537.36 (KHTML, like Gecko) Chrome/85.0.4183.121 Safari/537.36",31,"[0.9, 0.5, 0.1]","[0.8, 0.4, 0.2]","[u'black', u'red', u'blue']","[u'left', u'middle', u'right']","[0.9, 0.5, 0.1]","[u'low', u'medium', u'high']","red",50,"middle","medium","False","False",1751,1300,NA
"A1Q6VY3C3CEOA0","Mon Oct 05 2020 08:54:36 GMT-0700 (Mountain Standard Time)","Mon Oct 05 2020 09:14:25 GMT-0700 (Mountain Standard Time)","Mozilla/5.0 (Windows NT 10.0; Win64; x64) AppleWebKit/537.36 (KHTML, like Gecko) Chrome/85.0.4183.121 Safari/537.36",32,"[0.9, 0.5, 0.1]","[0.8, 0.4, 0.2]","[u'black', u'red', u'blue']","[u'left', u'middle', u'right']","[0.9, 0.5, 0.1]","[u'low', u'medium', u'high']","blue",51,"right","high","True","False",2264,1400,NA
"A1Q6VY3C3CEOA0","Mon Oct 05 2020 08:54:36 GMT-0700 (Mountain Standard Time)","Mon Oct 05 2020 09:14:25 GMT-0700 (Mountain Standard Time)","Mozilla/5.0 (Windows NT 10.0; Win64; x64) AppleWebKit/537.36 (KHTML, like Gecko) Chrome/85.0.4183.121 Safari/537.36",33,"[0.9, 0.5, 0.1]","[0.8, 0.4, 0.2]","[u'black', u'red', u'blue']","[u'left', u'middle', u'right']","[0.9, 0.5, 0.1]","[u'low', u'medium', u'high']","blue",51,"right","high","True","False",1767,1500,NA
"A1Q6VY3C3CEOA0","Mon Oct 05 2020 08:54:36 GMT-0700 (Mountain Standard Time)","Mon Oct 05 2020 09:14:25 GMT-0700 (Mountain Standard Time)","Mozilla/5.0 (Windows NT 10.0; Win64; x64) AppleWebKit/537.36 (KHTML, like Gecko) Chrome/85.0.4183.121 Safari/537.36",34,"[0.9, 0.5, 0.1]","[0.8, 0.4, 0.2]","[u'black', u'red', u'blue']","[u'left', u'middle', u'right']","[0.9, 0.5, 0.1]","[u'low', u'medium', u'high']","blue",51,"right","high","False","False",1585,1450,NA
"A1Q6VY3C3CEOA0","Mon Oct 05 2020 08:54:36 GMT-0700 (Mountain Standard Time)","Mon Oct 05 2020 09:14:25 GMT-0700 (Mountain Standard Time)","Mozilla/5.0 (Windows NT 10.0; Win64; x64) AppleWebKit/537.36 (KHTML, like Gecko) Chrome/85.0.4183.121 Safari/537.36",35,"[0.9, 0.5, 0.1]","[0.8, 0.4, 0.2]","[u'black', u'red', u'blue']","[u'left', u'middle', u'right']","[0.9, 0.5, 0.1]","[u'low', u'medium', u'high']","blue",51,"right","high","True","False",2120,1550,NA
"A1Q6VY3C3CEOA0","Mon Oct 05 2020 08:54:36 GMT-0700 (Mountain Standard Time)","Mon Oct 05 2020 09:14:25 GMT-0700 (Mountain Standard Time)","Mozilla/5.0 (Windows NT 10.0; Win64; x64) AppleWebKit/537.36 (KHTML, like Gecko) Chrome/85.0.4183.121 Safari/537.36",36,"[0.9, 0.5, 0.1]","[0.8, 0.4, 0.2]","[u'black', u'red', u'blue']","[u'left', u'middle', u'right']","[0.9, 0.5, 0.1]","[u'low', u'medium', u'high']","blue",51,"right","high","True","False",1937,1650,NA
"A1Q6VY3C3CEOA0","Mon Oct 05 2020 08:54:36 GMT-0700 (Mountain Standard Time)","Mon Oct 05 2020 09:14:25 GMT-0700 (Mountain Standard Time)","Mozilla/5.0 (Windows NT 10.0; Win64; x64) AppleWebKit/537.36 (KHTML, like Gecko) Chrome/85.0.4183.121 Safari/537.36",37,"[0.9, 0.5, 0.1]","[0.8, 0.4, 0.2]","[u'black', u'red', u'blue']","[u'left', u'middle', u'right']","[0.9, 0.5, 0.1]","[u'low', u'medium', u'high']","blue",51,"right","high","True","False",1525,1750,NA
"A1Q6VY3C3CEOA0","Mon Oct 05 2020 08:54:36 GMT-0700 (Mountain Standard Time)","Mon Oct 05 2020 09:14:25 GMT-0700 (Mountain Standard Time)","Mozilla/5.0 (Windows NT 10.0; Win64; x64) AppleWebKit/537.36 (KHTML, like Gecko) Chrome/85.0.4183.121 Safari/537.36",38,"[0.9, 0.5, 0.1]","[0.8, 0.4, 0.2]","[u'black', u'red', u'blue']","[u'left', u'middle', u'right']","[0.9, 0.5, 0.1]","[u'low', u'medium', u'high']","blue",51,"right","high","True","False",1315,1850,NA
"A1Q6VY3C3CEOA0","Mon Oct 05 2020 08:54:36 GMT-0700 (Mountain Standard Time)","Mon Oct 05 2020 09:14:25 GMT-0700 (Mountain Standard Time)","Mozilla/5.0 (Windows NT 10.0; Win64; x64) AppleWebKit/537.36 (KHTML, like Gecko) Chrome/85.0.4183.121 Safari/537.36",39,"[0.9, 0.5, 0.1]","[0.8, 0.4, 0.2]","[u'black', u'red', u'blue']","[u'left', u'middle', u'right']","[0.9, 0.5, 0.1]","[u'low', u'medium', u'high']","blue",51,"right","high","True","False",1408,1950,NA
"A1Q6VY3C3CEOA0","Mon Oct 05 2020 08:54:36 GMT-0700 (Mountain Standard Time)","Mon Oct 05 2020 09:14:25 GMT-0700 (Mountain Standard Time)","Mozilla/5.0 (Windows NT 10.0; Win64; x64) AppleWebKit/537.36 (KHTML, like Gecko) Chrome/85.0.4183.121 Safari/537.36",40,"[0.9, 0.5, 0.1]","[0.8, 0.4, 0.2]","[u'black', u'red', u'blue']","[u'left', u'middle', u'right']","[0.9, 0.5, 0.1]","[u'low', u'medium', u'high']","blue",51,"right","high","True","True",1742,2050,NA
"A1Q6VY3C3CEOA0","Mon Oct 05 2020 08:54:36 GMT-0700 (Mountain Standard Time)","Mon Oct 05 2020 09:14:25 GMT-0700 (Mountain Standard Time)","Mozilla/5.0 (Windows NT 10.0; Win64; x64) AppleWebKit/537.36 (KHTML, like Gecko) Chrome/85.0.4183.121 Safari/537.36",41,"[0.9, 0.5, 0.1]","[0.8, 0.4, 0.2]","[u'black', u'red', u'blue']","[u'left', u'middle', u'right']","[0.9, 0.5, 0.1]","[u'medium', u'high', u'low']","blue",51,"right","low","False","False",2283,2000,NA
"A1Q6VY3C3CEOA0","Mon Oct 05 2020 08:54:36 GMT-0700 (Mountain Standard Time)","Mon Oct 05 2020 09:14:25 GMT-0700 (Mountain Standard Time)","Mozilla/5.0 (Windows NT 10.0; Win64; x64) AppleWebKit/537.36 (KHTML, like Gecko) Chrome/85.0.4183.121 Safari/537.36",42,"[0.9, 0.5, 0.1]","[0.8, 0.4, 0.2]","[u'black', u'red', u'blue']","[u'left', u'middle', u'right']","[0.9, 0.5, 0.1]","[u'medium', u'high', u'low']","blue",51,"right","low","True","False",2977,2100,NA
"A1Q6VY3C3CEOA0","Mon Oct 05 2020 08:54:36 GMT-0700 (Mountain Standard Time)","Mon Oct 05 2020 09:14:25 GMT-0700 (Mountain Standard Time)","Mozilla/5.0 (Windows NT 10.0; Win64; x64) AppleWebKit/537.36 (KHTML, like Gecko) Chrome/85.0.4183.121 Safari/537.36",43,"[0.9, 0.5, 0.1]","[0.8, 0.4, 0.2]","[u'black', u'red', u'blue']","[u'left', u'middle', u'right']","[0.9, 0.5, 0.1]","[u'medium', u'high', u'low']","blue",51,"right","low","False","False",1633,2050,NA
"A1Q6VY3C3CEOA0","Mon Oct 05 2020 08:54:36 GMT-0700 (Mountain Standard Time)","Mon Oct 05 2020 09:14:25 GMT-0700 (Mountain Standard Time)","Mozilla/5.0 (Windows NT 10.0; Win64; x64) AppleWebKit/537.36 (KHTML, like Gecko) Chrome/85.0.4183.121 Safari/537.36",44,"[0.9, 0.5, 0.1]","[0.8, 0.4, 0.2]","[u'black', u'red', u'blue']","[u'left', u'middle', u'right']","[0.9, 0.5, 0.1]","[u'medium', u'high', u'low']","blue",51,"right","low","False","False",2337,2000,NA
"A1Q6VY3C3CEOA0","Mon Oct 05 2020 08:54:36 GMT-0700 (Mountain Standard Time)","Mon Oct 05 2020 09:14:25 GMT-0700 (Mountain Standard Time)","Mozilla/5.0 (Windows NT 10.0; Win64; x64) AppleWebKit/537.36 (KHTML, like Gecko) Chrome/85.0.4183.121 Safari/537.36",45,"[0.9, 0.5, 0.1]","[0.8, 0.4, 0.2]","[u'black', u'red', u'blue']","[u'left', u'middle', u'right']","[0.9, 0.5, 0.1]","[u'medium', u'high', u'low']","blue",51,"right","low","False","False",2639,1950,NA
"A1Q6VY3C3CEOA0","Mon Oct 05 2020 08:54:36 GMT-0700 (Mountain Standard Time)","Mon Oct 05 2020 09:14:25 GMT-0700 (Mountain Standard Time)","Mozilla/5.0 (Windows NT 10.0; Win64; x64) AppleWebKit/537.36 (KHTML, like Gecko) Chrome/85.0.4183.121 Safari/537.36",46,"[0.9, 0.5, 0.1]","[0.8, 0.4, 0.2]","[u'black', u'red', u'blue']","[u'left', u'middle', u'right']","[0.9, 0.5, 0.1]","[u'medium', u'high', u'low']","red",50,"middle","high","True","False",3392,2050,NA
"A1Q6VY3C3CEOA0","Mon Oct 05 2020 08:54:36 GMT-0700 (Mountain Standard Time)","Mon Oct 05 2020 09:14:25 GMT-0700 (Mountain Standard Time)","Mozilla/5.0 (Windows NT 10.0; Win64; x64) AppleWebKit/537.36 (KHTML, like Gecko) Chrome/85.0.4183.121 Safari/537.36",47,"[0.9, 0.5, 0.1]","[0.8, 0.4, 0.2]","[u'black', u'red', u'blue']","[u'left', u'middle', u'right']","[0.9, 0.5, 0.1]","[u'medium', u'high', u'low']","red",50,"middle","high","True","False",2365,2150,NA
"A1Q6VY3C3CEOA0","Mon Oct 05 2020 08:54:36 GMT-0700 (Mountain Standard Time)","Mon Oct 05 2020 09:14:25 GMT-0700 (Mountain Standard Time)","Mozilla/5.0 (Windows NT 10.0; Win64; x64) AppleWebKit/537.36 (KHTML, like Gecko) Chrome/85.0.4183.121 Safari/537.36",48,"[0.9, 0.5, 0.1]","[0.8, 0.4, 0.2]","[u'black', u'red', u'blue']","[u'left', u'middle', u'right']","[0.9, 0.5, 0.1]","[u'medium', u'high', u'low']","red",50,"middle","high","False","False",1935,2100,NA
"A1Q6VY3C3CEOA0","Mon Oct 05 2020 08:54:36 GMT-0700 (Mountain Standard Time)","Mon Oct 05 2020 09:14:25 GMT-0700 (Mountain Standard Time)","Mozilla/5.0 (Windows NT 10.0; Win64; x64) AppleWebKit/537.36 (KHTML, like Gecko) Chrome/85.0.4183.121 Safari/537.36",49,"[0.9, 0.5, 0.1]","[0.8, 0.4, 0.2]","[u'black', u'red', u'blue']","[u'left', u'middle', u'right']","[0.9, 0.5, 0.1]","[u'medium', u'high', u'low']","red",50,"middle","high","True","False",1975,2200,NA
"A1Q6VY3C3CEOA0","Mon Oct 05 2020 08:54:36 GMT-0700 (Mountain Standard Time)","Mon Oct 05 2020 09:14:25 GMT-0700 (Mountain Standard Time)","Mozilla/5.0 (Windows NT 10.0; Win64; x64) AppleWebKit/537.36 (KHTML, like Gecko) Chrome/85.0.4183.121 Safari/537.36",50,"[0.9, 0.5, 0.1]","[0.8, 0.4, 0.2]","[u'black', u'red', u'blue']","[u'left', u'middle', u'right']","[0.9, 0.5, 0.1]","[u'medium', u'high', u'low']","red",50,"middle","high","True","False",1633,2300,NA
"A1Q6VY3C3CEOA0","Mon Oct 05 2020 08:54:36 GMT-0700 (Mountain Standard Time)","Mon Oct 05 2020 09:14:25 GMT-0700 (Mountain Standard Time)","Mozilla/5.0 (Windows NT 10.0; Win64; x64) AppleWebKit/537.36 (KHTML, like Gecko) Chrome/85.0.4183.121 Safari/537.36",51,"[0.9, 0.5, 0.1]","[0.8, 0.4, 0.2]","[u'black', u'red', u'blue']","[u'left', u'middle', u'right']","[0.9, 0.5, 0.1]","[u'medium', u'high', u'low']","red",50,"middle","high","False","False",1546,2250,NA
"A1Q6VY3C3CEOA0","Mon Oct 05 2020 08:54:36 GMT-0700 (Mountain Standard Time)","Mon Oct 05 2020 09:14:25 GMT-0700 (Mountain Standard Time)","Mozilla/5.0 (Windows NT 10.0; Win64; x64) AppleWebKit/537.36 (KHTML, like Gecko) Chrome/85.0.4183.121 Safari/537.36",52,"[0.9, 0.5, 0.1]","[0.8, 0.4, 0.2]","[u'black', u'red', u'blue']","[u'left', u'middle', u'right']","[0.9, 0.5, 0.1]","[u'medium', u'high', u'low']","red",50,"middle","high","False","False",2956,2200,NA
"A1Q6VY3C3CEOA0","Mon Oct 05 2020 08:54:36 GMT-0700 (Mountain Standard Time)","Mon Oct 05 2020 09:14:25 GMT-0700 (Mountain Standard Time)","Mozilla/5.0 (Windows NT 10.0; Win64; x64) AppleWebKit/537.36 (KHTML, like Gecko) Chrome/85.0.4183.121 Safari/537.36",53,"[0.9, 0.5, 0.1]","[0.8, 0.4, 0.2]","[u'black', u'red', u'blue']","[u'left', u'middle', u'right']","[0.9, 0.5, 0.1]","[u'medium', u'high', u'low']","blue",51,"right","low","True","False",4672,2300,NA
"A1Q6VY3C3CEOA0","Mon Oct 05 2020 08:54:36 GMT-0700 (Mountain Standard Time)","Mon Oct 05 2020 09:14:25 GMT-0700 (Mountain Standard Time)","Mozilla/5.0 (Windows NT 10.0; Win64; x64) AppleWebKit/537.36 (KHTML, like Gecko) Chrome/85.0.4183.121 Safari/537.36",54,"[0.9, 0.5, 0.1]","[0.8, 0.4, 0.2]","[u'black', u'red', u'blue']","[u'left', u'middle', u'right']","[0.9, 0.5, 0.1]","[u'medium', u'high', u'low']","blue",51,"right","low","False","False",1909,2250,NA
"A1Q6VY3C3CEOA0","Mon Oct 05 2020 08:54:36 GMT-0700 (Mountain Standard Time)","Mon Oct 05 2020 09:14:25 GMT-0700 (Mountain Standard Time)","Mozilla/5.0 (Windows NT 10.0; Win64; x64) AppleWebKit/537.36 (KHTML, like Gecko) Chrome/85.0.4183.121 Safari/537.36",55,"[0.9, 0.5, 0.1]","[0.8, 0.4, 0.2]","[u'black', u'red', u'blue']","[u'left', u'middle', u'right']","[0.9, 0.5, 0.1]","[u'medium', u'high', u'low']","blue",51,"right","low","False","False",2269,2200,NA
"A1Q6VY3C3CEOA0","Mon Oct 05 2020 08:54:36 GMT-0700 (Mountain Standard Time)","Mon Oct 05 2020 09:14:25 GMT-0700 (Mountain Standard Time)","Mozilla/5.0 (Windows NT 10.0; Win64; x64) AppleWebKit/537.36 (KHTML, like Gecko) Chrome/85.0.4183.121 Safari/537.36",56,"[0.9, 0.5, 0.1]","[0.8, 0.4, 0.2]","[u'black', u'red', u'blue']","[u'left', u'middle', u'right']","[0.9, 0.5, 0.1]","[u'medium', u'high', u'low']","red",50,"middle","high","True","False",1711,2300,NA
"A1Q6VY3C3CEOA0","Mon Oct 05 2020 08:54:36 GMT-0700 (Mountain Standard Time)","Mon Oct 05 2020 09:14:25 GMT-0700 (Mountain Standard Time)","Mozilla/5.0 (Windows NT 10.0; Win64; x64) AppleWebKit/537.36 (KHTML, like Gecko) Chrome/85.0.4183.121 Safari/537.36",57,"[0.9, 0.5, 0.1]","[0.8, 0.4, 0.2]","[u'black', u'red', u'blue']","[u'left', u'middle', u'right']","[0.9, 0.5, 0.1]","[u'medium', u'high', u'low']","red",50,"middle","high","True","False",1634,2400,NA
"A1Q6VY3C3CEOA0","Mon Oct 05 2020 08:54:36 GMT-0700 (Mountain Standard Time)","Mon Oct 05 2020 09:14:25 GMT-0700 (Mountain Standard Time)","Mozilla/5.0 (Windows NT 10.0; Win64; x64) AppleWebKit/537.36 (KHTML, like Gecko) Chrome/85.0.4183.121 Safari/537.36",58,"[0.9, 0.5, 0.1]","[0.8, 0.4, 0.2]","[u'black', u'red', u'blue']","[u'left', u'middle', u'right']","[0.9, 0.5, 0.1]","[u'medium', u'high', u'low']","red",50,"middle","high","False","False",1951,2350,NA
"A1Q6VY3C3CEOA0","Mon Oct 05 2020 08:54:36 GMT-0700 (Mountain Standard Time)","Mon Oct 05 2020 09:14:25 GMT-0700 (Mountain Standard Time)","Mozilla/5.0 (Windows NT 10.0; Win64; x64) AppleWebKit/537.36 (KHTML, like Gecko) Chrome/85.0.4183.121 Safari/537.36",59,"[0.9, 0.5, 0.1]","[0.8, 0.4, 0.2]","[u'black', u'red', u'blue']","[u'left', u'middle', u'right']","[0.9, 0.5, 0.1]","[u'medium', u'high', u'low']","red",50,"middle","high","True","False",2034,2450,NA
"A1Q6VY3C3CEOA0","Mon Oct 05 2020 08:54:36 GMT-0700 (Mountain Standard Time)","Mon Oct 05 2020 09:14:25 GMT-0700 (Mountain Standard Time)","Mozilla/5.0 (Windows NT 10.0; Win64; x64) AppleWebKit/537.36 (KHTML, like Gecko) Chrome/85.0.4183.121 Safari/537.36",60,"[0.9, 0.5, 0.1]","[0.8, 0.4, 0.2]","[u'black', u'red', u'blue']","[u'left', u'middle', u'right']","[0.9, 0.5, 0.1]","[u'medium', u'high', u'low']","red",50,"middle","high","True","False",1439,2550,NA
"A1Q6VY3C3CEOA0","Mon Oct 05 2020 08:54:36 GMT-0700 (Mountain Standard Time)","Mon Oct 05 2020 09:14:25 GMT-0700 (Mountain Standard Time)","Mozilla/5.0 (Windows NT 10.0; Win64; x64) AppleWebKit/537.36 (KHTML, like Gecko) Chrome/85.0.4183.121 Safari/537.36",61,"[0.9, 0.5, 0.1]","[0.8, 0.4, 0.2]","[u'black', u'red', u'blue']","[u'left', u'middle', u'right']","[0.9, 0.5, 0.1]","[u'medium', u'high', u'low']","red",50,"middle","high","True","False",1487,2650,NA
"A1Q6VY3C3CEOA0","Mon Oct 05 2020 08:54:36 GMT-0700 (Mountain Standard Time)","Mon Oct 05 2020 09:14:25 GMT-0700 (Mountain Standard Time)","Mozilla/5.0 (Windows NT 10.0; Win64; x64) AppleWebKit/537.36 (KHTML, like Gecko) Chrome/85.0.4183.121 Safari/537.36",62,"[0.9, 0.5, 0.1]","[0.8, 0.4, 0.2]","[u'black', u'red', u'blue']","[u'left', u'middle', u'right']","[0.9, 0.5, 0.1]","[u'medium', u'high', u'low']","red",50,"middle","high","True","False",1285,2750,NA
"A1Q6VY3C3CEOA0","Mon Oct 05 2020 08:54:36 GMT-0700 (Mountain Standard Time)","Mon Oct 05 2020 09:14:25 GMT-0700 (Mountain Standard Time)","Mozilla/5.0 (Windows NT 10.0; Win64; x64) AppleWebKit/537.36 (KHTML, like Gecko) Chrome/85.0.4183.121 Safari/537.36",63,"[0.9, 0.5, 0.1]","[0.8, 0.4, 0.2]","[u'black', u'red', u'blue']","[u'left', u'middle', u'right']","[0.9, 0.5, 0.1]","[u'medium', u'high', u'low']","red",50,"middle","high","False","False",1400,2700,NA
"A1Q6VY3C3CEOA0","Mon Oct 05 2020 08:54:36 GMT-0700 (Mountain Standard Time)","Mon Oct 05 2020 09:14:25 GMT-0700 (Mountain Standard Time)","Mozilla/5.0 (Windows NT 10.0; Win64; x64) AppleWebKit/537.36 (KHTML, like Gecko) Chrome/85.0.4183.121 Safari/537.36",64,"[0.9, 0.5, 0.1]","[0.8, 0.4, 0.2]","[u'black', u'red', u'blue']","[u'left', u'middle', u'right']","[0.9, 0.5, 0.1]","[u'medium', u'high', u'low']","red",50,"middle","high","False","True",3139,2650,NA
"A1Q6VY3C3CEOA0","Mon Oct 05 2020 08:54:36 GMT-0700 (Mountain Standard Time)","Mon Oct 05 2020 09:14:25 GMT-0700 (Mountain Standard Time)","Mozilla/5.0 (Windows NT 10.0; Win64; x64) AppleWebKit/537.36 (KHTML, like Gecko) Chrome/85.0.4183.121 Safari/537.36",65,"[0.9, 0.5, 0.1]","[0.8, 0.4, 0.2]","[u'black', u'red', u'blue']","[u'left', u'middle', u'right']","[0.9, 0.5, 0.1]","[u'high', u'medium', u'low']","blue",51,"right","low","False","False",2106,2600,NA
"A1Q6VY3C3CEOA0","Mon Oct 05 2020 08:54:36 GMT-0700 (Mountain Standard Time)","Mon Oct 05 2020 09:14:25 GMT-0700 (Mountain Standard Time)","Mozilla/5.0 (Windows NT 10.0; Win64; x64) AppleWebKit/537.36 (KHTML, like Gecko) Chrome/85.0.4183.121 Safari/537.36",66,"[0.9, 0.5, 0.1]","[0.8, 0.4, 0.2]","[u'black', u'red', u'blue']","[u'left', u'middle', u'right']","[0.9, 0.5, 0.1]","[u'high', u'medium', u'low']","red",50,"middle","medium","True","False",2126,2700,NA
"A1Q6VY3C3CEOA0","Mon Oct 05 2020 08:54:36 GMT-0700 (Mountain Standard Time)","Mon Oct 05 2020 09:14:25 GMT-0700 (Mountain Standard Time)","Mozilla/5.0 (Windows NT 10.0; Win64; x64) AppleWebKit/537.36 (KHTML, like Gecko) Chrome/85.0.4183.121 Safari/537.36",67,"[0.9, 0.5, 0.1]","[0.8, 0.4, 0.2]","[u'black', u'red', u'blue']","[u'left', u'middle', u'right']","[0.9, 0.5, 0.1]","[u'high', u'medium', u'low']","red",50,"middle","medium","True","False",1412,2800,NA
"A1Q6VY3C3CEOA0","Mon Oct 05 2020 08:54:36 GMT-0700 (Mountain Standard Time)","Mon Oct 05 2020 09:14:25 GMT-0700 (Mountain Standard Time)","Mozilla/5.0 (Windows NT 10.0; Win64; x64) AppleWebKit/537.36 (KHTML, like Gecko) Chrome/85.0.4183.121 Safari/537.36",68,"[0.9, 0.5, 0.1]","[0.8, 0.4, 0.2]","[u'black', u'red', u'blue']","[u'left', u'middle', u'right']","[0.9, 0.5, 0.1]","[u'high', u'medium', u'low']","red",50,"middle","medium","True","False",1486,2900,NA
"A1Q6VY3C3CEOA0","Mon Oct 05 2020 08:54:36 GMT-0700 (Mountain Standard Time)","Mon Oct 05 2020 09:14:25 GMT-0700 (Mountain Standard Time)","Mozilla/5.0 (Windows NT 10.0; Win64; x64) AppleWebKit/537.36 (KHTML, like Gecko) Chrome/85.0.4183.121 Safari/537.36",69,"[0.9, 0.5, 0.1]","[0.8, 0.4, 0.2]","[u'black', u'red', u'blue']","[u'left', u'middle', u'right']","[0.9, 0.5, 0.1]","[u'high', u'medium', u'low']","red",50,"middle","medium","True","False",1542,3000,NA
"A1Q6VY3C3CEOA0","Mon Oct 05 2020 08:54:36 GMT-0700 (Mountain Standard Time)","Mon Oct 05 2020 09:14:25 GMT-0700 (Mountain Standard Time)","Mozilla/5.0 (Windows NT 10.0; Win64; x64) AppleWebKit/537.36 (KHTML, like Gecko) Chrome/85.0.4183.121 Safari/537.36",70,"[0.9, 0.5, 0.1]","[0.8, 0.4, 0.2]","[u'black', u'red', u'blue']","[u'left', u'middle', u'right']","[0.9, 0.5, 0.1]","[u'high', u'medium', u'low']","red",50,"middle","medium","True","False",1555,3100,NA
"A1Q6VY3C3CEOA0","Mon Oct 05 2020 08:54:36 GMT-0700 (Mountain Standard Time)","Mon Oct 05 2020 09:14:25 GMT-0700 (Mountain Standard Time)","Mozilla/5.0 (Windows NT 10.0; Win64; x64) AppleWebKit/537.36 (KHTML, like Gecko) Chrome/85.0.4183.121 Safari/537.36",71,"[0.9, 0.5, 0.1]","[0.8, 0.4, 0.2]","[u'black', u'red', u'blue']","[u'left', u'middle', u'right']","[0.9, 0.5, 0.1]","[u'high', u'medium', u'low']","red",50,"middle","medium","False","False",1872,3050,NA
"A1Q6VY3C3CEOA0","Mon Oct 05 2020 08:54:36 GMT-0700 (Mountain Standard Time)","Mon Oct 05 2020 09:14:25 GMT-0700 (Mountain Standard Time)","Mozilla/5.0 (Windows NT 10.0; Win64; x64) AppleWebKit/537.36 (KHTML, like Gecko) Chrome/85.0.4183.121 Safari/537.36",72,"[0.9, 0.5, 0.1]","[0.8, 0.4, 0.2]","[u'black', u'red', u'blue']","[u'left', u'middle', u'right']","[0.9, 0.5, 0.1]","[u'high', u'medium', u'low']","red",50,"middle","medium","True","False",2193,3150,NA
"A1Q6VY3C3CEOA0","Mon Oct 05 2020 08:54:36 GMT-0700 (Mountain Standard Time)","Mon Oct 05 2020 09:14:25 GMT-0700 (Mountain Standard Time)","Mozilla/5.0 (Windows NT 10.0; Win64; x64) AppleWebKit/537.36 (KHTML, like Gecko) Chrome/85.0.4183.121 Safari/537.36",73,"[0.9, 0.5, 0.1]","[0.8, 0.4, 0.2]","[u'black', u'red', u'blue']","[u'left', u'middle', u'right']","[0.9, 0.5, 0.1]","[u'high', u'medium', u'low']","red",50,"middle","medium","True","False",1233,3250,NA
"A1Q6VY3C3CEOA0","Mon Oct 05 2020 08:54:36 GMT-0700 (Mountain Standard Time)","Mon Oct 05 2020 09:14:25 GMT-0700 (Mountain Standard Time)","Mozilla/5.0 (Windows NT 10.0; Win64; x64) AppleWebKit/537.36 (KHTML, like Gecko) Chrome/85.0.4183.121 Safari/537.36",74,"[0.9, 0.5, 0.1]","[0.8, 0.4, 0.2]","[u'black', u'red', u'blue']","[u'left', u'middle', u'right']","[0.9, 0.5, 0.1]","[u'high', u'medium', u'low']","red",50,"middle","medium","False","False",1271,3200,NA
"A1Q6VY3C3CEOA0","Mon Oct 05 2020 08:54:36 GMT-0700 (Mountain Standard Time)","Mon Oct 05 2020 09:14:25 GMT-0700 (Mountain Standard Time)","Mozilla/5.0 (Windows NT 10.0; Win64; x64) AppleWebKit/537.36 (KHTML, like Gecko) Chrome/85.0.4183.121 Safari/537.36",75,"[0.9, 0.5, 0.1]","[0.8, 0.4, 0.2]","[u'black', u'red', u'blue']","[u'left', u'middle', u'right']","[0.9, 0.5, 0.1]","[u'high', u'medium', u'low']","red",50,"middle","medium","True","False",1543,3300,NA
"A1Q6VY3C3CEOA0","Mon Oct 05 2020 08:54:36 GMT-0700 (Mountain Standard Time)","Mon Oct 05 2020 09:14:25 GMT-0700 (Mountain Standard Time)","Mozilla/5.0 (Windows NT 10.0; Win64; x64) AppleWebKit/537.36 (KHTML, like Gecko) Chrome/85.0.4183.121 Safari/537.36",76,"[0.9, 0.5, 0.1]","[0.8, 0.4, 0.2]","[u'black', u'red', u'blue']","[u'left', u'middle', u'right']","[0.9, 0.5, 0.1]","[u'high', u'medium', u'low']","red",50,"middle","medium","True","False",1380,3400,NA
"A1Q6VY3C3CEOA0","Mon Oct 05 2020 08:54:36 GMT-0700 (Mountain Standard Time)","Mon Oct 05 2020 09:14:25 GMT-0700 (Mountain Standard Time)","Mozilla/5.0 (Windows NT 10.0; Win64; x64) AppleWebKit/537.36 (KHTML, like Gecko) Chrome/85.0.4183.121 Safari/537.36",77,"[0.9, 0.5, 0.1]","[0.8, 0.4, 0.2]","[u'black', u'red', u'blue']","[u'left', u'middle', u'right']","[0.9, 0.5, 0.1]","[u'high', u'medium', u'low']","red",50,"middle","medium","True","False",1652,3500,NA
"A1Q6VY3C3CEOA0","Mon Oct 05 2020 08:54:36 GMT-0700 (Mountain Standard Time)","Mon Oct 05 2020 09:14:25 GMT-0700 (Mountain Standard Time)","Mozilla/5.0 (Windows NT 10.0; Win64; x64) AppleWebKit/537.36 (KHTML, like Gecko) Chrome/85.0.4183.121 Safari/537.36",78,"[0.9, 0.5, 0.1]","[0.8, 0.4, 0.2]","[u'black', u'red', u'blue']","[u'left', u'middle', u'right']","[0.9, 0.5, 0.1]","[u'high', u'medium', u'low']","red",50,"middle","medium","False","False",2333,3450,NA
"A1Q6VY3C3CEOA0","Mon Oct 05 2020 08:54:36 GMT-0700 (Mountain Standard Time)","Mon Oct 05 2020 09:14:25 GMT-0700 (Mountain Standard Time)","Mozilla/5.0 (Windows NT 10.0; Win64; x64) AppleWebKit/537.36 (KHTML, like Gecko) Chrome/85.0.4183.121 Safari/537.36",79,"[0.9, 0.5, 0.1]","[0.8, 0.4, 0.2]","[u'black', u'red', u'blue']","[u'left', u'middle', u'right']","[0.9, 0.5, 0.1]","[u'high', u'medium', u'low']","red",50,"middle","medium","True","False",12364,3550,NA
"A1Q6VY3C3CEOA0","Mon Oct 05 2020 08:54:36 GMT-0700 (Mountain Standard Time)","Mon Oct 05 2020 09:14:25 GMT-0700 (Mountain Standard Time)","Mozilla/5.0 (Windows NT 10.0; Win64; x64) AppleWebKit/537.36 (KHTML, like Gecko) Chrome/85.0.4183.121 Safari/537.36",80,"[0.9, 0.5, 0.1]","[0.8, 0.4, 0.2]","[u'black', u'red', u'blue']","[u'left', u'middle', u'right']","[0.9, 0.5, 0.1]","[u'high', u'medium', u'low']","red",50,"middle","medium","True","False",5369,3650,NA
"A1Q6VY3C3CEOA0","Mon Oct 05 2020 08:54:36 GMT-0700 (Mountain Standard Time)","Mon Oct 05 2020 09:14:25 GMT-0700 (Mountain Standard Time)","Mozilla/5.0 (Windows NT 10.0; Win64; x64) AppleWebKit/537.36 (KHTML, like Gecko) Chrome/85.0.4183.121 Safari/537.36",81,"[0.9, 0.5, 0.1]","[0.8, 0.4, 0.2]","[u'black', u'red', u'blue']","[u'left', u'middle', u'right']","[0.8, 0.4, 0.2]","[u'low', u'high', u'medium']","red",50,"middle","high","True","False",1349,3750,NA
"A1Q6VY3C3CEOA0","Mon Oct 05 2020 08:54:36 GMT-0700 (Mountain Standard Time)","Mon Oct 05 2020 09:14:25 GMT-0700 (Mountain Standard Time)","Mozilla/5.0 (Windows NT 10.0; Win64; x64) AppleWebKit/537.36 (KHTML, like Gecko) Chrome/85.0.4183.121 Safari/537.36",82,"[0.9, 0.5, 0.1]","[0.8, 0.4, 0.2]","[u'black', u'red', u'blue']","[u'left', u'middle', u'right']","[0.8, 0.4, 0.2]","[u'low', u'high', u'medium']","red",50,"middle","high","True","False",2327,3850,NA
"A1Q6VY3C3CEOA0","Mon Oct 05 2020 08:54:36 GMT-0700 (Mountain Standard Time)","Mon Oct 05 2020 09:14:25 GMT-0700 (Mountain Standard Time)","Mozilla/5.0 (Windows NT 10.0; Win64; x64) AppleWebKit/537.36 (KHTML, like Gecko) Chrome/85.0.4183.121 Safari/537.36",83,"[0.9, 0.5, 0.1]","[0.8, 0.4, 0.2]","[u'black', u'red', u'blue']","[u'left', u'middle', u'right']","[0.8, 0.4, 0.2]","[u'low', u'high', u'medium']","red",50,"middle","high","True","False",1462,3950,NA
"A1Q6VY3C3CEOA0","Mon Oct 05 2020 08:54:36 GMT-0700 (Mountain Standard Time)","Mon Oct 05 2020 09:14:25 GMT-0700 (Mountain Standard Time)","Mozilla/5.0 (Windows NT 10.0; Win64; x64) AppleWebKit/537.36 (KHTML, like Gecko) Chrome/85.0.4183.121 Safari/537.36",84,"[0.9, 0.5, 0.1]","[0.8, 0.4, 0.2]","[u'black', u'red', u'blue']","[u'left', u'middle', u'right']","[0.8, 0.4, 0.2]","[u'low', u'high', u'medium']","red",50,"middle","high","True","False",1162,4050,NA
"A1Q6VY3C3CEOA0","Mon Oct 05 2020 08:54:36 GMT-0700 (Mountain Standard Time)","Mon Oct 05 2020 09:14:25 GMT-0700 (Mountain Standard Time)","Mozilla/5.0 (Windows NT 10.0; Win64; x64) AppleWebKit/537.36 (KHTML, like Gecko) Chrome/85.0.4183.121 Safari/537.36",85,"[0.9, 0.5, 0.1]","[0.8, 0.4, 0.2]","[u'black', u'red', u'blue']","[u'left', u'middle', u'right']","[0.8, 0.4, 0.2]","[u'low', u'high', u'medium']","red",50,"middle","high","True","False",2099,4150,NA
"A1Q6VY3C3CEOA0","Mon Oct 05 2020 08:54:36 GMT-0700 (Mountain Standard Time)","Mon Oct 05 2020 09:14:25 GMT-0700 (Mountain Standard Time)","Mozilla/5.0 (Windows NT 10.0; Win64; x64) AppleWebKit/537.36 (KHTML, like Gecko) Chrome/85.0.4183.121 Safari/537.36",86,"[0.9, 0.5, 0.1]","[0.8, 0.4, 0.2]","[u'black', u'red', u'blue']","[u'left', u'middle', u'right']","[0.8, 0.4, 0.2]","[u'low', u'high', u'medium']","red",50,"middle","high","True","False",1132,4250,NA
"A1Q6VY3C3CEOA0","Mon Oct 05 2020 08:54:36 GMT-0700 (Mountain Standard Time)","Mon Oct 05 2020 09:14:25 GMT-0700 (Mountain Standard Time)","Mozilla/5.0 (Windows NT 10.0; Win64; x64) AppleWebKit/537.36 (KHTML, like Gecko) Chrome/85.0.4183.121 Safari/537.36",87,"[0.9, 0.5, 0.1]","[0.8, 0.4, 0.2]","[u'black', u'red', u'blue']","[u'left', u'middle', u'right']","[0.8, 0.4, 0.2]","[u'low', u'high', u'medium']","red",50,"middle","high","True","False",1092,4350,NA
"A1Q6VY3C3CEOA0","Mon Oct 05 2020 08:54:36 GMT-0700 (Mountain Standard Time)","Mon Oct 05 2020 09:14:25 GMT-0700 (Mountain Standard Time)","Mozilla/5.0 (Windows NT 10.0; Win64; x64) AppleWebKit/537.36 (KHTML, like Gecko) Chrome/85.0.4183.121 Safari/537.36",88,"[0.9, 0.5, 0.1]","[0.8, 0.4, 0.2]","[u'black', u'red', u'blue']","[u'left', u'middle', u'right']","[0.8, 0.4, 0.2]","[u'low', u'high', u'medium']","red",50,"middle","high","True","False",1076,4450,NA
"A1Q6VY3C3CEOA0","Mon Oct 05 2020 08:54:36 GMT-0700 (Mountain Standard Time)","Mon Oct 05 2020 09:14:25 GMT-0700 (Mountain Standard Time)","Mozilla/5.0 (Windows NT 10.0; Win64; x64) AppleWebKit/537.36 (KHTML, like Gecko) Chrome/85.0.4183.121 Safari/537.36",89,"[0.9, 0.5, 0.1]","[0.8, 0.4, 0.2]","[u'black', u'red', u'blue']","[u'left', u'middle', u'right']","[0.8, 0.4, 0.2]","[u'low', u'high', u'medium']","red",50,"middle","high","True","True",1292,4550,NA
"A1Q6VY3C3CEOA0","Mon Oct 05 2020 08:54:36 GMT-0700 (Mountain Standard Time)","Mon Oct 05 2020 09:14:25 GMT-0700 (Mountain Standard Time)","Mozilla/5.0 (Windows NT 10.0; Win64; x64) AppleWebKit/537.36 (KHTML, like Gecko) Chrome/85.0.4183.121 Safari/537.36",90,"[0.9, 0.5, 0.1]","[0.8, 0.4, 0.2]","[u'black', u'red', u'blue']","[u'left', u'middle', u'right']","[0.8, 0.4, 0.2]","[u'low', u'medium', u'high']","red",50,"middle","medium","False","False",1399,4500,NA
"A1Q6VY3C3CEOA0","Mon Oct 05 2020 08:54:36 GMT-0700 (Mountain Standard Time)","Mon Oct 05 2020 09:14:25 GMT-0700 (Mountain Standard Time)","Mozilla/5.0 (Windows NT 10.0; Win64; x64) AppleWebKit/537.36 (KHTML, like Gecko) Chrome/85.0.4183.121 Safari/537.36",91,"[0.9, 0.5, 0.1]","[0.8, 0.4, 0.2]","[u'black', u'red', u'blue']","[u'left', u'middle', u'right']","[0.8, 0.4, 0.2]","[u'low', u'medium', u'high']","red",50,"middle","medium","False","False",8921,4450,NA
"A1Q6VY3C3CEOA0","Mon Oct 05 2020 08:54:36 GMT-0700 (Mountain Standard Time)","Mon Oct 05 2020 09:14:25 GMT-0700 (Mountain Standard Time)","Mozilla/5.0 (Windows NT 10.0; Win64; x64) AppleWebKit/537.36 (KHTML, like Gecko) Chrome/85.0.4183.121 Safari/537.36",92,"[0.9, 0.5, 0.1]","[0.8, 0.4, 0.2]","[u'black', u'red', u'blue']","[u'left', u'middle', u'right']","[0.8, 0.4, 0.2]","[u'low', u'medium', u'high']","blue",51,"right","high","True","False",4470,4550,NA
"A1Q6VY3C3CEOA0","Mon Oct 05 2020 08:54:36 GMT-0700 (Mountain Standard Time)","Mon Oct 05 2020 09:14:25 GMT-0700 (Mountain Standard Time)","Mozilla/5.0 (Windows NT 10.0; Win64; x64) AppleWebKit/537.36 (KHTML, like Gecko) Chrome/85.0.4183.121 Safari/537.36",93,"[0.9, 0.5, 0.1]","[0.8, 0.4, 0.2]","[u'black', u'red', u'blue']","[u'left', u'middle', u'right']","[0.8, 0.4, 0.2]","[u'low', u'medium', u'high']","blue",51,"right","high","True","False",3162,4650,NA
"A1Q6VY3C3CEOA0","Mon Oct 05 2020 08:54:36 GMT-0700 (Mountain Standard Time)","Mon Oct 05 2020 09:14:25 GMT-0700 (Mountain Standard Time)","Mozilla/5.0 (Windows NT 10.0; Win64; x64) AppleWebKit/537.36 (KHTML, like Gecko) Chrome/85.0.4183.121 Safari/537.36",94,"[0.9, 0.5, 0.1]","[0.8, 0.4, 0.2]","[u'black', u'red', u'blue']","[u'left', u'middle', u'right']","[0.8, 0.4, 0.2]","[u'low', u'medium', u'high']","blue",51,"right","high","True","False",1375,4750,NA
"A1Q6VY3C3CEOA0","Mon Oct 05 2020 08:54:36 GMT-0700 (Mountain Standard Time)","Mon Oct 05 2020 09:14:25 GMT-0700 (Mountain Standard Time)","Mozilla/5.0 (Windows NT 10.0; Win64; x64) AppleWebKit/537.36 (KHTML, like Gecko) Chrome/85.0.4183.121 Safari/537.36",95,"[0.9, 0.5, 0.1]","[0.8, 0.4, 0.2]","[u'black', u'red', u'blue']","[u'left', u'middle', u'right']","[0.8, 0.4, 0.2]","[u'low', u'medium', u'high']","blue",51,"right","high","False","False",1356,4700,NA
"A1Q6VY3C3CEOA0","Mon Oct 05 2020 08:54:36 GMT-0700 (Mountain Standard Time)","Mon Oct 05 2020 09:14:25 GMT-0700 (Mountain Standard Time)","Mozilla/5.0 (Windows NT 10.0; Win64; x64) AppleWebKit/537.36 (KHTML, like Gecko) Chrome/85.0.4183.121 Safari/537.36",96,"[0.9, 0.5, 0.1]","[0.8, 0.4, 0.2]","[u'black', u'red', u'blue']","[u'left', u'middle', u'right']","[0.8, 0.4, 0.2]","[u'low', u'medium', u'high']","blue",51,"right","high","True","False",1759,4800,NA
"A1Q6VY3C3CEOA0","Mon Oct 05 2020 08:54:36 GMT-0700 (Mountain Standard Time)","Mon Oct 05 2020 09:14:25 GMT-0700 (Mountain Standard Time)","Mozilla/5.0 (Windows NT 10.0; Win64; x64) AppleWebKit/537.36 (KHTML, like Gecko) Chrome/85.0.4183.121 Safari/537.36",97,"[0.9, 0.5, 0.1]","[0.8, 0.4, 0.2]","[u'black', u'red', u'blue']","[u'left', u'middle', u'right']","[0.8, 0.4, 0.2]","[u'low', u'medium', u'high']","blue",51,"right","high","True","False",1277,4900,NA
"A1Q6VY3C3CEOA0","Mon Oct 05 2020 08:54:36 GMT-0700 (Mountain Standard Time)","Mon Oct 05 2020 09:14:25 GMT-0700 (Mountain Standard Time)","Mozilla/5.0 (Windows NT 10.0; Win64; x64) AppleWebKit/537.36 (KHTML, like Gecko) Chrome/85.0.4183.121 Safari/537.36",98,"[0.9, 0.5, 0.1]","[0.8, 0.4, 0.2]","[u'black', u'red', u'blue']","[u'left', u'middle', u'right']","[0.8, 0.4, 0.2]","[u'low', u'medium', u'high']","blue",51,"right","high","True","False",1201,5000,NA
"A1Q6VY3C3CEOA0","Mon Oct 05 2020 08:54:36 GMT-0700 (Mountain Standard Time)","Mon Oct 05 2020 09:14:25 GMT-0700 (Mountain Standard Time)","Mozilla/5.0 (Windows NT 10.0; Win64; x64) AppleWebKit/537.36 (KHTML, like Gecko) Chrome/85.0.4183.121 Safari/537.36",99,"[0.9, 0.5, 0.1]","[0.8, 0.4, 0.2]","[u'black', u'red', u'blue']","[u'left', u'middle', u'right']","[0.8, 0.4, 0.2]","[u'low', u'medium', u'high']","blue",51,"right","high","True","False",1052,5100,NA
"A1Q6VY3C3CEOA0","Mon Oct 05 2020 08:54:36 GMT-0700 (Mountain Standard Time)","Mon Oct 05 2020 09:14:25 GMT-0700 (Mountain Standard Time)","Mozilla/5.0 (Windows NT 10.0; Win64; x64) AppleWebKit/537.36 (KHTML, like Gecko) Chrome/85.0.4183.121 Safari/537.36",100,"[0.9, 0.5, 0.1]","[0.8, 0.4, 0.2]","[u'black', u'red', u'blue']","[u'left', u'middle', u'right']","[0.8, 0.4, 0.2]","[u'low', u'medium', u'high']","blue",51,"right","high","True","True",1157,5200,NA
"A1Q6VY3C3CEOA0","Mon Oct 05 2020 08:54:36 GMT-0700 (Mountain Standard Time)","Mon Oct 05 2020 09:14:25 GMT-0700 (Mountain Standard Time)","Mozilla/5.0 (Windows NT 10.0; Win64; x64) AppleWebKit/537.36 (KHTML, like Gecko) Chrome/85.0.4183.121 Safari/537.36",101,"[0.9, 0.5, 0.1]","[0.8, 0.4, 0.2]","[u'black', u'red', u'blue']","[u'left', u'middle', u'right']","[0.8, 0.4, 0.2]","[u'low', u'high', u'medium']","blue",51,"right","medium","True","False",1208,5300,NA
"A1Q6VY3C3CEOA0","Mon Oct 05 2020 08:54:36 GMT-0700 (Mountain Standard Time)","Mon Oct 05 2020 09:14:25 GMT-0700 (Mountain Standard Time)","Mozilla/5.0 (Windows NT 10.0; Win64; x64) AppleWebKit/537.36 (KHTML, like Gecko) Chrome/85.0.4183.121 Safari/537.36",102,"[0.9, 0.5, 0.1]","[0.8, 0.4, 0.2]","[u'black', u'red', u'blue']","[u'left', u'middle', u'right']","[0.8, 0.4, 0.2]","[u'low', u'high', u'medium']","blue",51,"right","medium","True","False",1298,5400,NA
"A1Q6VY3C3CEOA0","Mon Oct 05 2020 08:54:36 GMT-0700 (Mountain Standard Time)","Mon Oct 05 2020 09:14:25 GMT-0700 (Mountain Standard Time)","Mozilla/5.0 (Windows NT 10.0; Win64; x64) AppleWebKit/537.36 (KHTML, like Gecko) Chrome/85.0.4183.121 Safari/537.36",103,"[0.9, 0.5, 0.1]","[0.8, 0.4, 0.2]","[u'black', u'red', u'blue']","[u'left', u'middle', u'right']","[0.8, 0.4, 0.2]","[u'low', u'high', u'medium']","blue",51,"right","medium","False","False",1184,5350,NA
"A1Q6VY3C3CEOA0","Mon Oct 05 2020 08:54:36 GMT-0700 (Mountain Standard Time)","Mon Oct 05 2020 09:14:25 GMT-0700 (Mountain Standard Time)","Mozilla/5.0 (Windows NT 10.0; Win64; x64) AppleWebKit/537.36 (KHTML, like Gecko) Chrome/85.0.4183.121 Safari/537.36",104,"[0.9, 0.5, 0.1]","[0.8, 0.4, 0.2]","[u'black', u'red', u'blue']","[u'left', u'middle', u'right']","[0.8, 0.4, 0.2]","[u'low', u'high', u'medium']","blue",51,"right","medium","True","False",1856,5450,NA
"A1Q6VY3C3CEOA0","Mon Oct 05 2020 08:54:36 GMT-0700 (Mountain Standard Time)","Mon Oct 05 2020 09:14:25 GMT-0700 (Mountain Standard Time)","Mozilla/5.0 (Windows NT 10.0; Win64; x64) AppleWebKit/537.36 (KHTML, like Gecko) Chrome/85.0.4183.121 Safari/537.36",105,"[0.9, 0.5, 0.1]","[0.8, 0.4, 0.2]","[u'black', u'red', u'blue']","[u'left', u'middle', u'right']","[0.8, 0.4, 0.2]","[u'low', u'high', u'medium']","blue",51,"right","medium","False","False",1449,5400,NA
"A1Q6VY3C3CEOA0","Mon Oct 05 2020 08:54:36 GMT-0700 (Mountain Standard Time)","Mon Oct 05 2020 09:14:25 GMT-0700 (Mountain Standard Time)","Mozilla/5.0 (Windows NT 10.0; Win64; x64) AppleWebKit/537.36 (KHTML, like Gecko) Chrome/85.0.4183.121 Safari/537.36",106,"[0.9, 0.5, 0.1]","[0.8, 0.4, 0.2]","[u'black', u'red', u'blue']","[u'left', u'middle', u'right']","[0.8, 0.4, 0.2]","[u'low', u'high', u'medium']","blue",51,"right","medium","False","False",1239,5350,NA
"A1Q6VY3C3CEOA0","Mon Oct 05 2020 08:54:36 GMT-0700 (Mountain Standard Time)","Mon Oct 05 2020 09:14:25 GMT-0700 (Mountain Standard Time)","Mozilla/5.0 (Windows NT 10.0; Win64; x64) AppleWebKit/537.36 (KHTML, like Gecko) Chrome/85.0.4183.121 Safari/537.36",107,"[0.9, 0.5, 0.1]","[0.8, 0.4, 0.2]","[u'black', u'red', u'blue']","[u'left', u'middle', u'right']","[0.8, 0.4, 0.2]","[u'low', u'high', u'medium']","red",50,"middle","high","True","False",1510,5450,NA
"A1Q6VY3C3CEOA0","Mon Oct 05 2020 08:54:36 GMT-0700 (Mountain Standard Time)","Mon Oct 05 2020 09:14:25 GMT-0700 (Mountain Standard Time)","Mozilla/5.0 (Windows NT 10.0; Win64; x64) AppleWebKit/537.36 (KHTML, like Gecko) Chrome/85.0.4183.121 Safari/537.36",108,"[0.9, 0.5, 0.1]","[0.8, 0.4, 0.2]","[u'black', u'red', u'blue']","[u'left', u'middle', u'right']","[0.8, 0.4, 0.2]","[u'low', u'high', u'medium']","red",50,"middle","high","True","False",2384,5550,NA
"A1Q6VY3C3CEOA0","Mon Oct 05 2020 08:54:36 GMT-0700 (Mountain Standard Time)","Mon Oct 05 2020 09:14:25 GMT-0700 (Mountain Standard Time)","Mozilla/5.0 (Windows NT 10.0; Win64; x64) AppleWebKit/537.36 (KHTML, like Gecko) Chrome/85.0.4183.121 Safari/537.36",109,"[0.9, 0.5, 0.1]","[0.8, 0.4, 0.2]","[u'black', u'red', u'blue']","[u'left', u'middle', u'right']","[0.8, 0.4, 0.2]","[u'low', u'high', u'medium']","red",50,"middle","high","True","False",1498,5650,NA
"A1Q6VY3C3CEOA0","Mon Oct 05 2020 08:54:36 GMT-0700 (Mountain Standard Time)","Mon Oct 05 2020 09:14:25 GMT-0700 (Mountain Standard Time)","Mozilla/5.0 (Windows NT 10.0; Win64; x64) AppleWebKit/537.36 (KHTML, like Gecko) Chrome/85.0.4183.121 Safari/537.36",110,"[0.9, 0.5, 0.1]","[0.8, 0.4, 0.2]","[u'black', u'red', u'blue']","[u'left', u'middle', u'right']","[0.8, 0.4, 0.2]","[u'low', u'high', u'medium']","red",50,"middle","high","True","False",984,5750,NA
"A1Q6VY3C3CEOA0","Mon Oct 05 2020 08:54:36 GMT-0700 (Mountain Standard Time)","Mon Oct 05 2020 09:14:25 GMT-0700 (Mountain Standard Time)","Mozilla/5.0 (Windows NT 10.0; Win64; x64) AppleWebKit/537.36 (KHTML, like Gecko) Chrome/85.0.4183.121 Safari/537.36",111,"[0.9, 0.5, 0.1]","[0.8, 0.4, 0.2]","[u'black', u'red', u'blue']","[u'left', u'middle', u'right']","[0.8, 0.4, 0.2]","[u'low', u'high', u'medium']","red",50,"middle","high","True","False",1042,5850,NA
"A1Q6VY3C3CEOA0","Mon Oct 05 2020 08:54:36 GMT-0700 (Mountain Standard Time)","Mon Oct 05 2020 09:14:25 GMT-0700 (Mountain Standard Time)","Mozilla/5.0 (Windows NT 10.0; Win64; x64) AppleWebKit/537.36 (KHTML, like Gecko) Chrome/85.0.4183.121 Safari/537.36",112,"[0.9, 0.5, 0.1]","[0.8, 0.4, 0.2]","[u'black', u'red', u'blue']","[u'left', u'middle', u'right']","[0.8, 0.4, 0.2]","[u'low', u'high', u'medium']","red",50,"middle","high","True","False",859,5950,NA
"A1Q6VY3C3CEOA0","Mon Oct 05 2020 08:54:36 GMT-0700 (Mountain Standard Time)","Mon Oct 05 2020 09:14:25 GMT-0700 (Mountain Standard Time)","Mozilla/5.0 (Windows NT 10.0; Win64; x64) AppleWebKit/537.36 (KHTML, like Gecko) Chrome/85.0.4183.121 Safari/537.36",113,"[0.9, 0.5, 0.1]","[0.8, 0.4, 0.2]","[u'black', u'red', u'blue']","[u'left', u'middle', u'right']","[0.8, 0.4, 0.2]","[u'low', u'high', u'medium']","red",50,"middle","high","True","False",905,6050,NA
"A1Q6VY3C3CEOA0","Mon Oct 05 2020 08:54:36 GMT-0700 (Mountain Standard Time)","Mon Oct 05 2020 09:14:25 GMT-0700 (Mountain Standard Time)","Mozilla/5.0 (Windows NT 10.0; Win64; x64) AppleWebKit/537.36 (KHTML, like Gecko) Chrome/85.0.4183.121 Safari/537.36",114,"[0.9, 0.5, 0.1]","[0.8, 0.4, 0.2]","[u'black', u'red', u'blue']","[u'left', u'middle', u'right']","[0.8, 0.4, 0.2]","[u'low', u'high', u'medium']","red",50,"middle","high","False","False",1063,6000,NA
"A1Q6VY3C3CEOA0","Mon Oct 05 2020 08:54:36 GMT-0700 (Mountain Standard Time)","Mon Oct 05 2020 09:14:25 GMT-0700 (Mountain Standard Time)","Mozilla/5.0 (Windows NT 10.0; Win64; x64) AppleWebKit/537.36 (KHTML, like Gecko) Chrome/85.0.4183.121 Safari/537.36",115,"[0.9, 0.5, 0.1]","[0.8, 0.4, 0.2]","[u'black', u'red', u'blue']","[u'left', u'middle', u'right']","[0.8, 0.4, 0.2]","[u'low', u'high', u'medium']","red",50,"middle","high","True","True",2350,6100,NA
"A1Q6VY3C3CEOA0","Mon Oct 05 2020 08:54:36 GMT-0700 (Mountain Standard Time)","Mon Oct 05 2020 09:14:25 GMT-0700 (Mountain Standard Time)","Mozilla/5.0 (Windows NT 10.0; Win64; x64) AppleWebKit/537.36 (KHTML, like Gecko) Chrome/85.0.4183.121 Safari/537.36",116,"[0.9, 0.5, 0.1]","[0.8, 0.4, 0.2]","[u'black', u'red', u'blue']","[u'left', u'middle', u'right']","[0.8, 0.4, 0.2]","[u'high', u'low', u'medium']","red",50,"middle","low","True","False",1387,6200,NA
"A1Q6VY3C3CEOA0","Mon Oct 05 2020 08:54:36 GMT-0700 (Mountain Standard Time)","Mon Oct 05 2020 09:14:25 GMT-0700 (Mountain Standard Time)","Mozilla/5.0 (Windows NT 10.0; Win64; x64) AppleWebKit/537.36 (KHTML, like Gecko) Chrome/85.0.4183.121 Safari/537.36",117,"[0.9, 0.5, 0.1]","[0.8, 0.4, 0.2]","[u'black', u'red', u'blue']","[u'left', u'middle', u'right']","[0.8, 0.4, 0.2]","[u'high', u'low', u'medium']","red",50,"middle","low","False","False",1084,6150,NA
"A1Q6VY3C3CEOA0","Mon Oct 05 2020 08:54:36 GMT-0700 (Mountain Standard Time)","Mon Oct 05 2020 09:14:25 GMT-0700 (Mountain Standard Time)","Mozilla/5.0 (Windows NT 10.0; Win64; x64) AppleWebKit/537.36 (KHTML, like Gecko) Chrome/85.0.4183.121 Safari/537.36",118,"[0.9, 0.5, 0.1]","[0.8, 0.4, 0.2]","[u'black', u'red', u'blue']","[u'left', u'middle', u'right']","[0.8, 0.4, 0.2]","[u'high', u'low', u'medium']","red",50,"middle","low","False","False",2523,6100,NA
"A1Q6VY3C3CEOA0","Mon Oct 05 2020 08:54:36 GMT-0700 (Mountain Standard Time)","Mon Oct 05 2020 09:14:25 GMT-0700 (Mountain Standard Time)","Mozilla/5.0 (Windows NT 10.0; Win64; x64) AppleWebKit/537.36 (KHTML, like Gecko) Chrome/85.0.4183.121 Safari/537.36",119,"[0.9, 0.5, 0.1]","[0.8, 0.4, 0.2]","[u'black', u'red', u'blue']","[u'left', u'middle', u'right']","[0.8, 0.4, 0.2]","[u'high', u'low', u'medium']","blue",51,"right","medium","True","False",1711,6200,NA
"A1Q6VY3C3CEOA0","Mon Oct 05 2020 08:54:36 GMT-0700 (Mountain Standard Time)","Mon Oct 05 2020 09:14:25 GMT-0700 (Mountain Standard Time)","Mozilla/5.0 (Windows NT 10.0; Win64; x64) AppleWebKit/537.36 (KHTML, like Gecko) Chrome/85.0.4183.121 Safari/537.36",120,"[0.9, 0.5, 0.1]","[0.8, 0.4, 0.2]","[u'black', u'red', u'blue']","[u'left', u'middle', u'right']","[0.8, 0.4, 0.2]","[u'high', u'low', u'medium']","blue",51,"right","medium","False","False",1878,6150,NA
"A1Q6VY3C3CEOA0","Mon Oct 05 2020 08:54:36 GMT-0700 (Mountain Standard Time)","Mon Oct 05 2020 09:14:25 GMT-0700 (Mountain Standard Time)","Mozilla/5.0 (Windows NT 10.0; Win64; x64) AppleWebKit/537.36 (KHTML, like Gecko) Chrome/85.0.4183.121 Safari/537.36",121,"[0.9, 0.5, 0.1]","[0.8, 0.4, 0.2]","[u'black', u'red', u'blue']","[u'left', u'middle', u'right']","[0.8, 0.4, 0.2]","[u'low', u'medium', u'high']","red",50,"middle","medium","False","False",3787,6100,NA
"A1Q6VY3C3CEOA0","Mon Oct 05 2020 08:54:36 GMT-0700 (Mountain Standard Time)","Mon Oct 05 2020 09:14:25 GMT-0700 (Mountain Standard Time)","Mozilla/5.0 (Windows NT 10.0; Win64; x64) AppleWebKit/537.36 (KHTML, like Gecko) Chrome/85.0.4183.121 Safari/537.36",122,"[0.9, 0.5, 0.1]","[0.8, 0.4, 0.2]","[u'black', u'red', u'blue']","[u'left', u'middle', u'right']","[0.8, 0.4, 0.2]","[u'low', u'medium', u'high']","blue",51,"right","high","True","False",2309,6200,NA
"A1Q6VY3C3CEOA0","Mon Oct 05 2020 08:54:36 GMT-0700 (Mountain Standard Time)","Mon Oct 05 2020 09:14:25 GMT-0700 (Mountain Standard Time)","Mozilla/5.0 (Windows NT 10.0; Win64; x64) AppleWebKit/537.36 (KHTML, like Gecko) Chrome/85.0.4183.121 Safari/537.36",123,"[0.9, 0.5, 0.1]","[0.8, 0.4, 0.2]","[u'black', u'red', u'blue']","[u'left', u'middle', u'right']","[0.8, 0.4, 0.2]","[u'low', u'medium', u'high']","blue",51,"right","high","True","False",1496,6300,NA
"A1Q6VY3C3CEOA0","Mon Oct 05 2020 08:54:36 GMT-0700 (Mountain Standard Time)","Mon Oct 05 2020 09:14:25 GMT-0700 (Mountain Standard Time)","Mozilla/5.0 (Windows NT 10.0; Win64; x64) AppleWebKit/537.36 (KHTML, like Gecko) Chrome/85.0.4183.121 Safari/537.36",124,"[0.9, 0.5, 0.1]","[0.8, 0.4, 0.2]","[u'black', u'red', u'blue']","[u'left', u'middle', u'right']","[0.8, 0.4, 0.2]","[u'low', u'medium', u'high']","blue",51,"right","high","True","False",970,6400,NA
"A1Q6VY3C3CEOA0","Mon Oct 05 2020 08:54:36 GMT-0700 (Mountain Standard Time)","Mon Oct 05 2020 09:14:25 GMT-0700 (Mountain Standard Time)","Mozilla/5.0 (Windows NT 10.0; Win64; x64) AppleWebKit/537.36 (KHTML, like Gecko) Chrome/85.0.4183.121 Safari/537.36",125,"[0.9, 0.5, 0.1]","[0.8, 0.4, 0.2]","[u'black', u'red', u'blue']","[u'left', u'middle', u'right']","[0.8, 0.4, 0.2]","[u'low', u'medium', u'high']","blue",51,"right","high","False","False",1604,6350,NA
"A1Q6VY3C3CEOA0","Mon Oct 05 2020 08:54:36 GMT-0700 (Mountain Standard Time)","Mon Oct 05 2020 09:14:25 GMT-0700 (Mountain Standard Time)","Mozilla/5.0 (Windows NT 10.0; Win64; x64) AppleWebKit/537.36 (KHTML, like Gecko) Chrome/85.0.4183.121 Safari/537.36",126,"[0.9, 0.5, 0.1]","[0.8, 0.4, 0.2]","[u'black', u'red', u'blue']","[u'left', u'middle', u'right']","[0.8, 0.4, 0.2]","[u'low', u'medium', u'high']","blue",51,"right","high","True","False",3377,6450,NA
"A1Q6VY3C3CEOA0","Mon Oct 05 2020 08:54:36 GMT-0700 (Mountain Standard Time)","Mon Oct 05 2020 09:14:25 GMT-0700 (Mountain Standard Time)","Mozilla/5.0 (Windows NT 10.0; Win64; x64) AppleWebKit/537.36 (KHTML, like Gecko) Chrome/85.0.4183.121 Safari/537.36",127,"[0.9, 0.5, 0.1]","[0.8, 0.4, 0.2]","[u'black', u'red', u'blue']","[u'left', u'middle', u'right']","[0.8, 0.4, 0.2]","[u'low', u'medium', u'high']","blue",51,"right","high","True","False",1171,6550,NA
"A1Q6VY3C3CEOA0","Mon Oct 05 2020 08:54:36 GMT-0700 (Mountain Standard Time)","Mon Oct 05 2020 09:14:25 GMT-0700 (Mountain Standard Time)","Mozilla/5.0 (Windows NT 10.0; Win64; x64) AppleWebKit/537.36 (KHTML, like Gecko) Chrome/85.0.4183.121 Safari/537.36",128,"[0.9, 0.5, 0.1]","[0.8, 0.4, 0.2]","[u'black', u'red', u'blue']","[u'left', u'middle', u'right']","[0.8, 0.4, 0.2]","[u'low', u'medium', u'high']","blue",51,"right","high","True","False",859,6650,NA
"A1Q6VY3C3CEOA0","Mon Oct 05 2020 08:54:36 GMT-0700 (Mountain Standard Time)","Mon Oct 05 2020 09:14:25 GMT-0700 (Mountain Standard Time)","Mozilla/5.0 (Windows NT 10.0; Win64; x64) AppleWebKit/537.36 (KHTML, like Gecko) Chrome/85.0.4183.121 Safari/537.36",129,"[0.9, 0.5, 0.1]","[0.8, 0.4, 0.2]","[u'black', u'red', u'blue']","[u'left', u'middle', u'right']","[0.8, 0.4, 0.2]","[u'low', u'medium', u'high']","blue",51,"right","high","True","False",830,6750,NA
"A1Q6VY3C3CEOA0","Mon Oct 05 2020 08:54:36 GMT-0700 (Mountain Standard Time)","Mon Oct 05 2020 09:14:25 GMT-0700 (Mountain Standard Time)","Mozilla/5.0 (Windows NT 10.0; Win64; x64) AppleWebKit/537.36 (KHTML, like Gecko) Chrome/85.0.4183.121 Safari/537.36",130,"[0.9, 0.5, 0.1]","[0.8, 0.4, 0.2]","[u'black', u'red', u'blue']","[u'left', u'middle', u'right']","[0.8, 0.4, 0.2]","[u'low', u'medium', u'high']","blue",51,"right","high","True","True",784,6850,NA
"A1Q6VY3C3CEOA0","Mon Oct 05 2020 08:54:36 GMT-0700 (Mountain Standard Time)","Mon Oct 05 2020 09:14:25 GMT-0700 (Mountain Standard Time)","Mozilla/5.0 (Windows NT 10.0; Win64; x64) AppleWebKit/537.36 (KHTML, like Gecko) Chrome/85.0.4183.121 Safari/537.36",131,"[0.9, 0.5, 0.1]","[0.8, 0.4, 0.2]","[u'black', u'red', u'blue']","[u'left', u'middle', u'right']","[0.8, 0.4, 0.2]","[u'low', u'high', u'medium']","blue",51,"right","medium","False","False",717,6800,NA
"A1Q6VY3C3CEOA0","Mon Oct 05 2020 08:54:36 GMT-0700 (Mountain Standard Time)","Mon Oct 05 2020 09:14:25 GMT-0700 (Mountain Standard Time)","Mozilla/5.0 (Windows NT 10.0; Win64; x64) AppleWebKit/537.36 (KHTML, like Gecko) Chrome/85.0.4183.121 Safari/537.36",132,"[0.9, 0.5, 0.1]","[0.8, 0.4, 0.2]","[u'black', u'red', u'blue']","[u'left', u'middle', u'right']","[0.8, 0.4, 0.2]","[u'low', u'high', u'medium']","blue",51,"right","medium","False","False",1055,6750,NA
"A1Q6VY3C3CEOA0","Mon Oct 05 2020 08:54:36 GMT-0700 (Mountain Standard Time)","Mon Oct 05 2020 09:14:25 GMT-0700 (Mountain Standard Time)","Mozilla/5.0 (Windows NT 10.0; Win64; x64) AppleWebKit/537.36 (KHTML, like Gecko) Chrome/85.0.4183.121 Safari/537.36",133,"[0.9, 0.5, 0.1]","[0.8, 0.4, 0.2]","[u'black', u'red', u'blue']","[u'left', u'middle', u'right']","[0.8, 0.4, 0.2]","[u'low', u'high', u'medium']","blue",51,"right","medium","False","False",1343,6700,NA
"A1Q6VY3C3CEOA0","Mon Oct 05 2020 08:54:36 GMT-0700 (Mountain Standard Time)","Mon Oct 05 2020 09:14:25 GMT-0700 (Mountain Standard Time)","Mozilla/5.0 (Windows NT 10.0; Win64; x64) AppleWebKit/537.36 (KHTML, like Gecko) Chrome/85.0.4183.121 Safari/537.36",134,"[0.9, 0.5, 0.1]","[0.8, 0.4, 0.2]","[u'black', u'red', u'blue']","[u'left', u'middle', u'right']","[0.8, 0.4, 0.2]","[u'low', u'high', u'medium']","red",50,"middle","high","True","False",1443,6800,NA
"A1Q6VY3C3CEOA0","Mon Oct 05 2020 08:54:36 GMT-0700 (Mountain Standard Time)","Mon Oct 05 2020 09:14:25 GMT-0700 (Mountain Standard Time)","Mozilla/5.0 (Windows NT 10.0; Win64; x64) AppleWebKit/537.36 (KHTML, like Gecko) Chrome/85.0.4183.121 Safari/537.36",135,"[0.9, 0.5, 0.1]","[0.8, 0.4, 0.2]","[u'black', u'red', u'blue']","[u'left', u'middle', u'right']","[0.8, 0.4, 0.2]","[u'low', u'high', u'medium']","red",50,"middle","high","True","False",7660,6900,NA
"A1Q6VY3C3CEOA0","Mon Oct 05 2020 08:54:36 GMT-0700 (Mountain Standard Time)","Mon Oct 05 2020 09:14:25 GMT-0700 (Mountain Standard Time)","Mozilla/5.0 (Windows NT 10.0; Win64; x64) AppleWebKit/537.36 (KHTML, like Gecko) Chrome/85.0.4183.121 Safari/537.36",136,"[0.9, 0.5, 0.1]","[0.8, 0.4, 0.2]","[u'black', u'red', u'blue']","[u'left', u'middle', u'right']","[0.8, 0.4, 0.2]","[u'low', u'high', u'medium']","red",50,"middle","high","True","False",1272,7000,NA
"A1Q6VY3C3CEOA0","Mon Oct 05 2020 08:54:36 GMT-0700 (Mountain Standard Time)","Mon Oct 05 2020 09:14:25 GMT-0700 (Mountain Standard Time)","Mozilla/5.0 (Windows NT 10.0; Win64; x64) AppleWebKit/537.36 (KHTML, like Gecko) Chrome/85.0.4183.121 Safari/537.36",137,"[0.9, 0.5, 0.1]","[0.8, 0.4, 0.2]","[u'black', u'red', u'blue']","[u'left', u'middle', u'right']","[0.8, 0.4, 0.2]","[u'low', u'high', u'medium']","red",50,"middle","high","False","False",1039,6950,NA
"A1Q6VY3C3CEOA0","Mon Oct 05 2020 08:54:36 GMT-0700 (Mountain Standard Time)","Mon Oct 05 2020 09:14:25 GMT-0700 (Mountain Standard Time)","Mozilla/5.0 (Windows NT 10.0; Win64; x64) AppleWebKit/537.36 (KHTML, like Gecko) Chrome/85.0.4183.121 Safari/537.36",138,"[0.9, 0.5, 0.1]","[0.8, 0.4, 0.2]","[u'black', u'red', u'blue']","[u'left', u'middle', u'right']","[0.8, 0.4, 0.2]","[u'low', u'high', u'medium']","red",50,"middle","high","True","False",1533,7050,NA
"A1Q6VY3C3CEOA0","Mon Oct 05 2020 08:54:36 GMT-0700 (Mountain Standard Time)","Mon Oct 05 2020 09:14:25 GMT-0700 (Mountain Standard Time)","Mozilla/5.0 (Windows NT 10.0; Win64; x64) AppleWebKit/537.36 (KHTML, like Gecko) Chrome/85.0.4183.121 Safari/537.36",139,"[0.9, 0.5, 0.1]","[0.8, 0.4, 0.2]","[u'black', u'red', u'blue']","[u'left', u'middle', u'right']","[0.8, 0.4, 0.2]","[u'low', u'high', u'medium']","red",50,"middle","high","False","False",1164,7000,NA
"A1Q6VY3C3CEOA0","Mon Oct 05 2020 08:54:36 GMT-0700 (Mountain Standard Time)","Mon Oct 05 2020 09:14:25 GMT-0700 (Mountain Standard Time)","Mozilla/5.0 (Windows NT 10.0; Win64; x64) AppleWebKit/537.36 (KHTML, like Gecko) Chrome/85.0.4183.121 Safari/537.36",140,"[0.9, 0.5, 0.1]","[0.8, 0.4, 0.2]","[u'black', u'red', u'blue']","[u'left', u'middle', u'right']","[0.8, 0.4, 0.2]","[u'low', u'high', u'medium']","red",50,"middle","high","True","False",1232,7100,NA
"A1Q6VY3C3CEOA0","Mon Oct 05 2020 08:54:36 GMT-0700 (Mountain Standard Time)","Mon Oct 05 2020 09:14:25 GMT-0700 (Mountain Standard Time)","Mozilla/5.0 (Windows NT 10.0; Win64; x64) AppleWebKit/537.36 (KHTML, like Gecko) Chrome/85.0.4183.121 Safari/537.36",141,"[0.9, 0.5, 0.1]","[0.8, 0.4, 0.2]","[u'black', u'red', u'blue']","[u'left', u'middle', u'right']","[0.8, 0.4, 0.2]","[u'low', u'high', u'medium']","red",50,"middle","high","True","False",999,7200,NA
"A1Q6VY3C3CEOA0","Mon Oct 05 2020 08:54:36 GMT-0700 (Mountain Standard Time)","Mon Oct 05 2020 09:14:25 GMT-0700 (Mountain Standard Time)","Mozilla/5.0 (Windows NT 10.0; Win64; x64) AppleWebKit/537.36 (KHTML, like Gecko) Chrome/85.0.4183.121 Safari/537.36",142,"[0.9, 0.5, 0.1]","[0.8, 0.4, 0.2]","[u'black', u'red', u'blue']","[u'left', u'middle', u'right']","[0.8, 0.4, 0.2]","[u'low', u'high', u'medium']","red",50,"middle","high","True","True",890,7300,NA
"A1Q6VY3C3CEOA0","Mon Oct 05 2020 08:54:36 GMT-0700 (Mountain Standard Time)","Mon Oct 05 2020 09:14:25 GMT-0700 (Mountain Standard Time)","Mozilla/5.0 (Windows NT 10.0; Win64; x64) AppleWebKit/537.36 (KHTML, like Gecko) Chrome/85.0.4183.121 Safari/537.36",143,"[0.9, 0.5, 0.1]","[0.8, 0.4, 0.2]","[u'black', u'red', u'blue']","[u'left', u'middle', u'right']","[0.8, 0.4, 0.2]","[u'low', u'medium', u'high']","red",50,"middle","medium","True","False",813,7400,NA
"A1Q6VY3C3CEOA0","Mon Oct 05 2020 08:54:36 GMT-0700 (Mountain Standard Time)","Mon Oct 05 2020 09:14:25 GMT-0700 (Mountain Standard Time)","Mozilla/5.0 (Windows NT 10.0; Win64; x64) AppleWebKit/537.36 (KHTML, like Gecko) Chrome/85.0.4183.121 Safari/537.36",144,"[0.9, 0.5, 0.1]","[0.8, 0.4, 0.2]","[u'black', u'red', u'blue']","[u'left', u'middle', u'right']","[0.8, 0.4, 0.2]","[u'low', u'medium', u'high']","red",50,"middle","medium","True","False",882,7500,NA
"A1Q6VY3C3CEOA0","Mon Oct 05 2020 08:54:36 GMT-0700 (Mountain Standard Time)","Mon Oct 05 2020 09:14:25 GMT-0700 (Mountain Standard Time)","Mozilla/5.0 (Windows NT 10.0; Win64; x64) AppleWebKit/537.36 (KHTML, like Gecko) Chrome/85.0.4183.121 Safari/537.36",145,"[0.9, 0.5, 0.1]","[0.8, 0.4, 0.2]","[u'black', u'red', u'blue']","[u'left', u'middle', u'right']","[0.8, 0.4, 0.2]","[u'low', u'medium', u'high']","red",50,"middle","medium","False","False",753,7450,NA
"A1Q6VY3C3CEOA0","Mon Oct 05 2020 08:54:36 GMT-0700 (Mountain Standard Time)","Mon Oct 05 2020 09:14:25 GMT-0700 (Mountain Standard Time)","Mozilla/5.0 (Windows NT 10.0; Win64; x64) AppleWebKit/537.36 (KHTML, like Gecko) Chrome/85.0.4183.121 Safari/537.36",146,"[0.9, 0.5, 0.1]","[0.8, 0.4, 0.2]","[u'black', u'red', u'blue']","[u'left', u'middle', u'right']","[0.8, 0.4, 0.2]","[u'low', u'medium', u'high']","red",50,"middle","medium","False","False",2227,7400,NA
"A1Q6VY3C3CEOA0","Mon Oct 05 2020 08:54:36 GMT-0700 (Mountain Standard Time)","Mon Oct 05 2020 09:14:25 GMT-0700 (Mountain Standard Time)","Mozilla/5.0 (Windows NT 10.0; Win64; x64) AppleWebKit/537.36 (KHTML, like Gecko) Chrome/85.0.4183.121 Safari/537.36",147,"[0.9, 0.5, 0.1]","[0.8, 0.4, 0.2]","[u'black', u'red', u'blue']","[u'left', u'middle', u'right']","[0.8, 0.4, 0.2]","[u'low', u'medium', u'high']","blue",51,"right","high","True","False",1375,7500,NA
"A1Q6VY3C3CEOA0","Mon Oct 05 2020 08:54:36 GMT-0700 (Mountain Standard Time)","Mon Oct 05 2020 09:14:25 GMT-0700 (Mountain Standard Time)","Mozilla/5.0 (Windows NT 10.0; Win64; x64) AppleWebKit/537.36 (KHTML, like Gecko) Chrome/85.0.4183.121 Safari/537.36",148,"[0.9, 0.5, 0.1]","[0.8, 0.4, 0.2]","[u'black', u'red', u'blue']","[u'left', u'middle', u'right']","[0.8, 0.4, 0.2]","[u'low', u'medium', u'high']","blue",51,"right","high","False","False",1105,7450,NA
"A1Q6VY3C3CEOA0","Mon Oct 05 2020 08:54:36 GMT-0700 (Mountain Standard Time)","Mon Oct 05 2020 09:14:25 GMT-0700 (Mountain Standard Time)","Mozilla/5.0 (Windows NT 10.0; Win64; x64) AppleWebKit/537.36 (KHTML, like Gecko) Chrome/85.0.4183.121 Safari/537.36",149,"[0.9, 0.5, 0.1]","[0.8, 0.4, 0.2]","[u'black', u'red', u'blue']","[u'left', u'middle', u'right']","[0.8, 0.4, 0.2]","[u'low', u'medium', u'high']","blue",51,"right","high","True","False",1688,7550,NA
"A1Q6VY3C3CEOA0","Mon Oct 05 2020 08:54:36 GMT-0700 (Mountain Standard Time)","Mon Oct 05 2020 09:14:25 GMT-0700 (Mountain Standard Time)","Mozilla/5.0 (Windows NT 10.0; Win64; x64) AppleWebKit/537.36 (KHTML, like Gecko) Chrome/85.0.4183.121 Safari/537.36",150,"[0.9, 0.5, 0.1]","[0.8, 0.4, 0.2]","[u'black', u'red', u'blue']","[u'left', u'middle', u'right']","[0.8, 0.4, 0.2]","[u'low', u'medium', u'high']","blue",51,"right","high","True","False",939,7650,NA
"A1Q6VY3C3CEOA0","Mon Oct 05 2020 08:54:36 GMT-0700 (Mountain Standard Time)","Mon Oct 05 2020 09:14:25 GMT-0700 (Mountain Standard Time)","Mozilla/5.0 (Windows NT 10.0; Win64; x64) AppleWebKit/537.36 (KHTML, like Gecko) Chrome/85.0.4183.121 Safari/537.36",151,"[0.9, 0.5, 0.1]","[0.8, 0.4, 0.2]","[u'black', u'red', u'blue']","[u'left', u'middle', u'right']","[0.8, 0.4, 0.2]","[u'low', u'medium', u'high']","blue",51,"right","high","True","False",829,7750,NA
"A1Q6VY3C3CEOA0","Mon Oct 05 2020 08:54:36 GMT-0700 (Mountain Standard Time)","Mon Oct 05 2020 09:14:25 GMT-0700 (Mountain Standard Time)","Mozilla/5.0 (Windows NT 10.0; Win64; x64) AppleWebKit/537.36 (KHTML, like Gecko) Chrome/85.0.4183.121 Safari/537.36",152,"[0.9, 0.5, 0.1]","[0.8, 0.4, 0.2]","[u'black', u'red', u'blue']","[u'left', u'middle', u'right']","[0.8, 0.4, 0.2]","[u'low', u'medium', u'high']","blue",51,"right","high","True","False",766,7850,NA
"A1Q6VY3C3CEOA0","Mon Oct 05 2020 08:54:36 GMT-0700 (Mountain Standard Time)","Mon Oct 05 2020 09:14:25 GMT-0700 (Mountain Standard Time)","Mozilla/5.0 (Windows NT 10.0; Win64; x64) AppleWebKit/537.36 (KHTML, like Gecko) Chrome/85.0.4183.121 Safari/537.36",153,"[0.9, 0.5, 0.1]","[0.8, 0.4, 0.2]","[u'black', u'red', u'blue']","[u'left', u'middle', u'right']","[0.8, 0.4, 0.2]","[u'low', u'medium', u'high']","blue",51,"right","high","True","False",800,7950,NA
"A1Q6VY3C3CEOA0","Mon Oct 05 2020 08:54:36 GMT-0700 (Mountain Standard Time)","Mon Oct 05 2020 09:14:25 GMT-0700 (Mountain Standard Time)","Mozilla/5.0 (Windows NT 10.0; Win64; x64) AppleWebKit/537.36 (KHTML, like Gecko) Chrome/85.0.4183.121 Safari/537.36",154,"[0.9, 0.5, 0.1]","[0.8, 0.4, 0.2]","[u'black', u'red', u'blue']","[u'left', u'middle', u'right']","[0.8, 0.4, 0.2]","[u'low', u'medium', u'high']","blue",51,"right","high","True","False",710,8050,NA
"A1Q6VY3C3CEOA0","Mon Oct 05 2020 08:54:36 GMT-0700 (Mountain Standard Time)","Mon Oct 05 2020 09:14:25 GMT-0700 (Mountain Standard Time)","Mozilla/5.0 (Windows NT 10.0; Win64; x64) AppleWebKit/537.36 (KHTML, like Gecko) Chrome/85.0.4183.121 Safari/537.36",155,"[0.9, 0.5, 0.1]","[0.8, 0.4, 0.2]","[u'black', u'red', u'blue']","[u'left', u'middle', u'right']","[0.8, 0.4, 0.2]","[u'low', u'medium', u'high']","blue",51,"right","high","True","True",712,8150,NA
"A1Q6VY3C3CEOA0","Mon Oct 05 2020 08:54:36 GMT-0700 (Mountain Standard Time)","Mon Oct 05 2020 09:14:25 GMT-0700 (Mountain Standard Time)","Mozilla/5.0 (Windows NT 10.0; Win64; x64) AppleWebKit/537.36 (KHTML, like Gecko) Chrome/85.0.4183.121 Safari/537.36",156,"[0.9, 0.5, 0.1]","[0.8, 0.4, 0.2]","[u'black', u'red', u'blue']","[u'left', u'middle', u'right']","[0.8, 0.4, 0.2]","[u'medium', u'high', u'low']","blue",51,"right","low","False","False",753,8100,NA
"A1Q6VY3C3CEOA0","Mon Oct 05 2020 08:54:36 GMT-0700 (Mountain Standard Time)","Mon Oct 05 2020 09:14:25 GMT-0700 (Mountain Standard Time)","Mozilla/5.0 (Windows NT 10.0; Win64; x64) AppleWebKit/537.36 (KHTML, like Gecko) Chrome/85.0.4183.121 Safari/537.36",157,"[0.9, 0.5, 0.1]","[0.8, 0.4, 0.2]","[u'black', u'red', u'blue']","[u'left', u'middle', u'right']","[0.8, 0.4, 0.2]","[u'medium', u'high', u'low']","blue",51,"right","low","False","False",1981,8050,NA
"A1Q6VY3C3CEOA0","Mon Oct 05 2020 08:54:36 GMT-0700 (Mountain Standard Time)","Mon Oct 05 2020 09:14:25 GMT-0700 (Mountain Standard Time)","Mozilla/5.0 (Windows NT 10.0; Win64; x64) AppleWebKit/537.36 (KHTML, like Gecko) Chrome/85.0.4183.121 Safari/537.36",158,"[0.9, 0.5, 0.1]","[0.8, 0.4, 0.2]","[u'black', u'red', u'blue']","[u'left', u'middle', u'right']","[0.8, 0.4, 0.2]","[u'medium', u'high', u'low']","red",50,"middle","high","True","False",1360,8150,NA
"A1Q6VY3C3CEOA0","Mon Oct 05 2020 08:54:36 GMT-0700 (Mountain Standard Time)","Mon Oct 05 2020 09:14:25 GMT-0700 (Mountain Standard Time)","Mozilla/5.0 (Windows NT 10.0; Win64; x64) AppleWebKit/537.36 (KHTML, like Gecko) Chrome/85.0.4183.121 Safari/537.36",159,"[0.9, 0.5, 0.1]","[0.8, 0.4, 0.2]","[u'black', u'red', u'blue']","[u'left', u'middle', u'right']","[0.8, 0.4, 0.2]","[u'medium', u'high', u'low']","red",50,"middle","high","True","False",1360,8250,NA
"A1Q6VY3C3CEOA0","Mon Oct 05 2020 08:54:36 GMT-0700 (Mountain Standard Time)","Mon Oct 05 2020 09:14:25 GMT-0700 (Mountain Standard Time)","Mozilla/5.0 (Windows NT 10.0; Win64; x64) AppleWebKit/537.36 (KHTML, like Gecko) Chrome/85.0.4183.121 Safari/537.36",160,"[0.9, 0.5, 0.1]","[0.8, 0.4, 0.2]","[u'black', u'red', u'blue']","[u'left', u'middle', u'right']","[0.8, 0.4, 0.2]","[u'medium', u'high', u'low']","red",50,"middle","high","True","False",925,8350,NA
