"src_subject_id","start_time","end_time","browser","index","first_half_probabilities","second_half_probabilities","deck_color","deck_position","deck_probabilities","deck_contingencies","response_color","key_press","response_position","response_probability","reward_type","trial_type","rt","reward_tally","exclusion_reason"
"A5BMKZRGHNSRT","Mon Oct 05 2020 10:20:38 GMT-0500 (Central Daylight Time)","Mon Oct 05 2020 10:25:43 GMT-0500 (Central Daylight Time)","Mozilla/5.0 (Windows NT 6.1; WOW64) AppleWebKit/537.36 (KHTML, like Gecko) Chrome/81.0.4200.0 Iron Safari/537.36",1,"[0.9, 0.5, 0.1]","[0.8, 0.4, 0.2]","[u'blue', u'red', u'black']","[u'left', u'middle', u'right']","[0.9, 0.5, 0.1]","[u'high', u'medium', u'low']","black",51,"right","low","False","False",354,-50,NA
"A5BMKZRGHNSRT","Mon Oct 05 2020 10:20:38 GMT-0500 (Central Daylight Time)","Mon Oct 05 2020 10:25:43 GMT-0500 (Central Daylight Time)","Mozilla/5.0 (Windows NT 6.1; WOW64) AppleWebKit/537.36 (KHTML, like Gecko) Chrome/81.0.4200.0 Iron Safari/537.36",2,"[0.9, 0.5, 0.1]","[0.8, 0.4, 0.2]","[u'blue', u'red', u'black']","[u'left', u'middle', u'right']","[0.9, 0.5, 0.1]","[u'high', u'medium', u'low']","red",50,"middle","medium","False","False",243,-100,NA
"A5BMKZRGHNSRT","Mon Oct 05 2020 10:20:38 GMT-0500 (Central Daylight Time)","Mon Oct 05 2020 10:25:43 GMT-0500 (Central Daylight Time)","Mozilla/5.0 (Windows NT 6.1; WOW64) AppleWebKit/537.36 (KHTML, like Gecko) Chrome/81.0.4200.0 Iron Safari/537.36",3,"[0.9, 0.5, 0.1]","[0.8, 0.4, 0.2]","[u'blue', u'red', u'black']","[u'left', u'middle', u'right']","[0.9, 0.5, 0.1]","[u'high', u'medium', u'low']","blue",49,"left","high","False","False",210,-150,NA
"A5BMKZRGHNSRT","Mon Oct 05 2020 10:20:38 GMT-0500 (Central Daylight Time)","Mon Oct 05 2020 10:25:43 GMT-0500 (Central Daylight Time)","Mozilla/5.0 (Windows NT 6.1; WOW64) AppleWebKit/537.36 (KHTML, like Gecko) Chrome/81.0.4200.0 Iron Safari/537.36",4,"[0.9, 0.5, 0.1]","[0.8, 0.4, 0.2]","[u'blue', u'red', u'black']","[u'left', u'middle', u'right']","[0.9, 0.5, 0.1]","[u'high', u'medium', u'low']","black",51,"right","low","True","False",291,-50,NA
"A5BMKZRGHNSRT","Mon Oct 05 2020 10:20:38 GMT-0500 (Central Daylight Time)","Mon Oct 05 2020 10:25:43 GMT-0500 (Central Daylight Time)","Mozilla/5.0 (Windows NT 6.1; WOW64) AppleWebKit/537.36 (KHTML, like Gecko) Chrome/81.0.4200.0 Iron Safari/537.36",5,"[0.9, 0.5, 0.1]","[0.8, 0.4, 0.2]","[u'blue', u'red', u'black']","[u'left', u'middle', u'right']","[0.9, 0.5, 0.1]","[u'high', u'medium', u'low']","black",51,"right","low","False","False",243,-100,NA
"A5BMKZRGHNSRT","Mon Oct 05 2020 10:20:38 GMT-0500 (Central Daylight Time)","Mon Oct 05 2020 10:25:43 GMT-0500 (Central Daylight Time)","Mozilla/5.0 (Windows NT 6.1; WOW64) AppleWebKit/537.36 (KHTML, like Gecko) Chrome/81.0.4200.0 Iron Safari/537.36",6,"[0.9, 0.5, 0.1]","[0.8, 0.4, 0.2]","[u'blue', u'red', u'black']","[u'left', u'middle', u'right']","[0.9, 0.5, 0.1]","[u'high', u'medium', u'low']","black",51,"right","low","False","False",235,-150,NA
"A5BMKZRGHNSRT","Mon Oct 05 2020 10:20:38 GMT-0500 (Central Daylight Time)","Mon Oct 05 2020 10:25:43 GMT-0500 (Central Daylight Time)","Mozilla/5.0 (Windows NT 6.1; WOW64) AppleWebKit/537.36 (KHTML, like Gecko) Chrome/81.0.4200.0 Iron Safari/537.36",7,"[0.9, 0.5, 0.1]","[0.8, 0.4, 0.2]","[u'blue', u'red', u'black']","[u'left', u'middle', u'right']","[0.9, 0.5, 0.1]","[u'high', u'medium', u'low']","red",50,"middle","medium","False","False",219,-200,NA
"A5BMKZRGHNSRT","Mon Oct 05 2020 10:20:38 GMT-0500 (Central Daylight Time)","Mon Oct 05 2020 10:25:43 GMT-0500 (Central Daylight Time)","Mozilla/5.0 (Windows NT 6.1; WOW64) AppleWebKit/537.36 (KHTML, like Gecko) Chrome/81.0.4200.0 Iron Safari/537.36",8,"[0.9, 0.5, 0.1]","[0.8, 0.4, 0.2]","[u'blue', u'red', u'black']","[u'left', u'middle', u'right']","[0.9, 0.5, 0.1]","[u'high', u'medium', u'low']","red",50,"middle","medium","True","False",188,-100,NA
"A5BMKZRGHNSRT","Mon Oct 05 2020 10:20:38 GMT-0500 (Central Daylight Time)","Mon Oct 05 2020 10:25:43 GMT-0500 (Central Daylight Time)","Mozilla/5.0 (Windows NT 6.1; WOW64) AppleWebKit/537.36 (KHTML, like Gecko) Chrome/81.0.4200.0 Iron Safari/537.36",9,"[0.9, 0.5, 0.1]","[0.8, 0.4, 0.2]","[u'blue', u'red', u'black']","[u'left', u'middle', u'right']","[0.9, 0.5, 0.1]","[u'high', u'medium', u'low']","red",50,"middle","medium","True","False",113,0,NA
"A5BMKZRGHNSRT","Mon Oct 05 2020 10:20:38 GMT-0500 (Central Daylight Time)","Mon Oct 05 2020 10:25:43 GMT-0500 (Central Daylight Time)","Mozilla/5.0 (Windows NT 6.1; WOW64) AppleWebKit/537.36 (KHTML, like Gecko) Chrome/81.0.4200.0 Iron Safari/537.36",10,"[0.9, 0.5, 0.1]","[0.8, 0.4, 0.2]","[u'blue', u'red', u'black']","[u'left', u'middle', u'right']","[0.9, 0.5, 0.1]","[u'high', u'medium', u'low']","red",50,"middle","medium","True","False",202,100,NA
"A5BMKZRGHNSRT","Mon Oct 05 2020 10:20:38 GMT-0500 (Central Daylight Time)","Mon Oct 05 2020 10:25:43 GMT-0500 (Central Daylight Time)","Mozilla/5.0 (Windows NT 6.1; WOW64) AppleWebKit/537.36 (KHTML, like Gecko) Chrome/81.0.4200.0 Iron Safari/537.36",11,"[0.9, 0.5, 0.1]","[0.8, 0.4, 0.2]","[u'blue', u'red', u'black']","[u'left', u'middle', u'right']","[0.9, 0.5, 0.1]","[u'high', u'medium', u'low']","red",50,"middle","medium","False","False",170,50,NA
"A5BMKZRGHNSRT","Mon Oct 05 2020 10:20:38 GMT-0500 (Central Daylight Time)","Mon Oct 05 2020 10:25:43 GMT-0500 (Central Daylight Time)","Mozilla/5.0 (Windows NT 6.1; WOW64) AppleWebKit/537.36 (KHTML, like Gecko) Chrome/81.0.4200.0 Iron Safari/537.36",12,"[0.9, 0.5, 0.1]","[0.8, 0.4, 0.2]","[u'blue', u'red', u'black']","[u'left', u'middle', u'right']","[0.9, 0.5, 0.1]","[u'high', u'medium', u'low']","red",50,"middle","medium","False","False",74,0,NA
"A5BMKZRGHNSRT","Mon Oct 05 2020 10:20:38 GMT-0500 (Central Daylight Time)","Mon Oct 05 2020 10:25:43 GMT-0500 (Central Daylight Time)","Mozilla/5.0 (Windows NT 6.1; WOW64) AppleWebKit/537.36 (KHTML, like Gecko) Chrome/81.0.4200.0 Iron Safari/537.36",13,"[0.9, 0.5, 0.1]","[0.8, 0.4, 0.2]","[u'blue', u'red', u'black']","[u'left', u'middle', u'right']","[0.9, 0.5, 0.1]","[u'high', u'medium', u'low']","red",50,"middle","medium","True","False",195,100,NA
"A5BMKZRGHNSRT","Mon Oct 05 2020 10:20:38 GMT-0500 (Central Daylight Time)","Mon Oct 05 2020 10:25:43 GMT-0500 (Central Daylight Time)","Mozilla/5.0 (Windows NT 6.1; WOW64) AppleWebKit/537.36 (KHTML, like Gecko) Chrome/81.0.4200.0 Iron Safari/537.36",14,"[0.9, 0.5, 0.1]","[0.8, 0.4, 0.2]","[u'blue', u'red', u'black']","[u'left', u'middle', u'right']","[0.9, 0.5, 0.1]","[u'high', u'medium', u'low']","red",50,"middle","medium","False","False",83,50,NA
"A5BMKZRGHNSRT","Mon Oct 05 2020 10:20:38 GMT-0500 (Central Daylight Time)","Mon Oct 05 2020 10:25:43 GMT-0500 (Central Daylight Time)","Mozilla/5.0 (Windows NT 6.1; WOW64) AppleWebKit/537.36 (KHTML, like Gecko) Chrome/81.0.4200.0 Iron Safari/537.36",15,"[0.9, 0.5, 0.1]","[0.8, 0.4, 0.2]","[u'blue', u'red', u'black']","[u'left', u'middle', u'right']","[0.9, 0.5, 0.1]","[u'high', u'medium', u'low']","blue",49,"left","high","True","False",52,150,NA
"A5BMKZRGHNSRT","Mon Oct 05 2020 10:20:38 GMT-0500 (Central Daylight Time)","Mon Oct 05 2020 10:25:43 GMT-0500 (Central Daylight Time)","Mozilla/5.0 (Windows NT 6.1; WOW64) AppleWebKit/537.36 (KHTML, like Gecko) Chrome/81.0.4200.0 Iron Safari/537.36",16,"[0.9, 0.5, 0.1]","[0.8, 0.4, 0.2]","[u'blue', u'red', u'black']","[u'left', u'middle', u'right']","[0.9, 0.5, 0.1]","[u'high', u'medium', u'low']","blue",49,"left","high","True","False",170,250,NA
"A5BMKZRGHNSRT","Mon Oct 05 2020 10:20:38 GMT-0500 (Central Daylight Time)","Mon Oct 05 2020 10:25:43 GMT-0500 (Central Daylight Time)","Mozilla/5.0 (Windows NT 6.1; WOW64) AppleWebKit/537.36 (KHTML, like Gecko) Chrome/81.0.4200.0 Iron Safari/537.36",17,"[0.9, 0.5, 0.1]","[0.8, 0.4, 0.2]","[u'blue', u'red', u'black']","[u'left', u'middle', u'right']","[0.9, 0.5, 0.1]","[u'high', u'medium', u'low']","blue",49,"left","high","True","False",155,350,NA
"A5BMKZRGHNSRT","Mon Oct 05 2020 10:20:38 GMT-0500 (Central Daylight Time)","Mon Oct 05 2020 10:25:43 GMT-0500 (Central Daylight Time)","Mozilla/5.0 (Windows NT 6.1; WOW64) AppleWebKit/537.36 (KHTML, like Gecko) Chrome/81.0.4200.0 Iron Safari/537.36",18,"[0.9, 0.5, 0.1]","[0.8, 0.4, 0.2]","[u'blue', u'red', u'black']","[u'left', u'middle', u'right']","[0.9, 0.5, 0.1]","[u'high', u'medium', u'low']","blue",49,"left","high","True","False",275,450,NA
"A5BMKZRGHNSRT","Mon Oct 05 2020 10:20:38 GMT-0500 (Central Daylight Time)","Mon Oct 05 2020 10:25:43 GMT-0500 (Central Daylight Time)","Mozilla/5.0 (Windows NT 6.1; WOW64) AppleWebKit/537.36 (KHTML, like Gecko) Chrome/81.0.4200.0 Iron Safari/537.36",19,"[0.9, 0.5, 0.1]","[0.8, 0.4, 0.2]","[u'blue', u'red', u'black']","[u'left', u'middle', u'right']","[0.9, 0.5, 0.1]","[u'high', u'medium', u'low']","blue",49,"left","high","True","False",115,550,NA
"A5BMKZRGHNSRT","Mon Oct 05 2020 10:20:38 GMT-0500 (Central Daylight Time)","Mon Oct 05 2020 10:25:43 GMT-0500 (Central Daylight Time)","Mozilla/5.0 (Windows NT 6.1; WOW64) AppleWebKit/537.36 (KHTML, like Gecko) Chrome/81.0.4200.0 Iron Safari/537.36",20,"[0.9, 0.5, 0.1]","[0.8, 0.4, 0.2]","[u'blue', u'red', u'black']","[u'left', u'middle', u'right']","[0.9, 0.5, 0.1]","[u'high', u'medium', u'low']","blue",49,"left","high","True","False",67,650,NA
"A5BMKZRGHNSRT","Mon Oct 05 2020 10:20:38 GMT-0500 (Central Daylight Time)","Mon Oct 05 2020 10:25:43 GMT-0500 (Central Daylight Time)","Mozilla/5.0 (Windows NT 6.1; WOW64) AppleWebKit/537.36 (KHTML, like Gecko) Chrome/81.0.4200.0 Iron Safari/537.36",21,"[0.9, 0.5, 0.1]","[0.8, 0.4, 0.2]","[u'blue', u'red', u'black']","[u'left', u'middle', u'right']","[0.9, 0.5, 0.1]","[u'high', u'medium', u'low']","blue",49,"left","high","False","False",227,600,NA
"A5BMKZRGHNSRT","Mon Oct 05 2020 10:20:38 GMT-0500 (Central Daylight Time)","Mon Oct 05 2020 10:25:43 GMT-0500 (Central Daylight Time)","Mozilla/5.0 (Windows NT 6.1; WOW64) AppleWebKit/537.36 (KHTML, like Gecko) Chrome/81.0.4200.0 Iron Safari/537.36",22,"[0.9, 0.5, 0.1]","[0.8, 0.4, 0.2]","[u'blue', u'red', u'black']","[u'left', u'middle', u'right']","[0.9, 0.5, 0.1]","[u'high', u'medium', u'low']","blue",49,"left","high","True","False",209,700,NA
"A5BMKZRGHNSRT","Mon Oct 05 2020 10:20:38 GMT-0500 (Central Daylight Time)","Mon Oct 05 2020 10:25:43 GMT-0500 (Central Daylight Time)","Mozilla/5.0 (Windows NT 6.1; WOW64) AppleWebKit/537.36 (KHTML, like Gecko) Chrome/81.0.4200.0 Iron Safari/537.36",23,"[0.9, 0.5, 0.1]","[0.8, 0.4, 0.2]","[u'blue', u'red', u'black']","[u'left', u'middle', u'right']","[0.9, 0.5, 0.1]","[u'high', u'medium', u'low']","blue",49,"left","high","True","True",187,800,NA
"A5BMKZRGHNSRT","Mon Oct 05 2020 10:20:38 GMT-0500 (Central Daylight Time)","Mon Oct 05 2020 10:25:43 GMT-0500 (Central Daylight Time)","Mozilla/5.0 (Windows NT 6.1; WOW64) AppleWebKit/537.36 (KHTML, like Gecko) Chrome/81.0.4200.0 Iron Safari/537.36",24,"[0.9, 0.5, 0.1]","[0.8, 0.4, 0.2]","[u'blue', u'red', u'black']","[u'left', u'middle', u'right']","[0.9, 0.5, 0.1]","[u'low', u'high', u'medium']","blue",49,"left","low","False","False",211,750,NA
"A5BMKZRGHNSRT","Mon Oct 05 2020 10:20:38 GMT-0500 (Central Daylight Time)","Mon Oct 05 2020 10:25:43 GMT-0500 (Central Daylight Time)","Mozilla/5.0 (Windows NT 6.1; WOW64) AppleWebKit/537.36 (KHTML, like Gecko) Chrome/81.0.4200.0 Iron Safari/537.36",25,"[0.9, 0.5, 0.1]","[0.8, 0.4, 0.2]","[u'blue', u'red', u'black']","[u'left', u'middle', u'right']","[0.9, 0.5, 0.1]","[u'low', u'high', u'medium']","blue",49,"left","low","False","False",131,700,NA
"A5BMKZRGHNSRT","Mon Oct 05 2020 10:20:38 GMT-0500 (Central Daylight Time)","Mon Oct 05 2020 10:25:43 GMT-0500 (Central Daylight Time)","Mozilla/5.0 (Windows NT 6.1; WOW64) AppleWebKit/537.36 (KHTML, like Gecko) Chrome/81.0.4200.0 Iron Safari/537.36",26,"[0.9, 0.5, 0.1]","[0.8, 0.4, 0.2]","[u'blue', u'red', u'black']","[u'left', u'middle', u'right']","[0.9, 0.5, 0.1]","[u'low', u'high', u'medium']","red",50,"middle","high","True","False",187,800,NA
"A5BMKZRGHNSRT","Mon Oct 05 2020 10:20:38 GMT-0500 (Central Daylight Time)","Mon Oct 05 2020 10:25:43 GMT-0500 (Central Daylight Time)","Mozilla/5.0 (Windows NT 6.1; WOW64) AppleWebKit/537.36 (KHTML, like Gecko) Chrome/81.0.4200.0 Iron Safari/537.36",27,"[0.9, 0.5, 0.1]","[0.8, 0.4, 0.2]","[u'blue', u'red', u'black']","[u'left', u'middle', u'right']","[0.9, 0.5, 0.1]","[u'low', u'high', u'medium']","red",50,"middle","high","True","False",205,900,NA
"A5BMKZRGHNSRT","Mon Oct 05 2020 10:20:38 GMT-0500 (Central Daylight Time)","Mon Oct 05 2020 10:25:43 GMT-0500 (Central Daylight Time)","Mozilla/5.0 (Windows NT 6.1; WOW64) AppleWebKit/537.36 (KHTML, like Gecko) Chrome/81.0.4200.0 Iron Safari/537.36",28,"[0.9, 0.5, 0.1]","[0.8, 0.4, 0.2]","[u'blue', u'red', u'black']","[u'left', u'middle', u'right']","[0.9, 0.5, 0.1]","[u'low', u'high', u'medium']","red",50,"middle","high","True","False",139,1000,NA
"A5BMKZRGHNSRT","Mon Oct 05 2020 10:20:38 GMT-0500 (Central Daylight Time)","Mon Oct 05 2020 10:25:43 GMT-0500 (Central Daylight Time)","Mozilla/5.0 (Windows NT 6.1; WOW64) AppleWebKit/537.36 (KHTML, like Gecko) Chrome/81.0.4200.0 Iron Safari/537.36",29,"[0.9, 0.5, 0.1]","[0.8, 0.4, 0.2]","[u'blue', u'red', u'black']","[u'left', u'middle', u'right']","[0.9, 0.5, 0.1]","[u'low', u'high', u'medium']","red",50,"middle","high","True","False",43,1100,NA
"A5BMKZRGHNSRT","Mon Oct 05 2020 10:20:38 GMT-0500 (Central Daylight Time)","Mon Oct 05 2020 10:25:43 GMT-0500 (Central Daylight Time)","Mozilla/5.0 (Windows NT 6.1; WOW64) AppleWebKit/537.36 (KHTML, like Gecko) Chrome/81.0.4200.0 Iron Safari/537.36",30,"[0.9, 0.5, 0.1]","[0.8, 0.4, 0.2]","[u'blue', u'red', u'black']","[u'left', u'middle', u'right']","[0.9, 0.5, 0.1]","[u'low', u'high', u'medium']","red",50,"middle","high","True","False",59,1200,NA
"A5BMKZRGHNSRT","Mon Oct 05 2020 10:20:38 GMT-0500 (Central Daylight Time)","Mon Oct 05 2020 10:25:43 GMT-0500 (Central Daylight Time)","Mozilla/5.0 (Windows NT 6.1; WOW64) AppleWebKit/537.36 (KHTML, like Gecko) Chrome/81.0.4200.0 Iron Safari/537.36",31,"[0.9, 0.5, 0.1]","[0.8, 0.4, 0.2]","[u'blue', u'red', u'black']","[u'left', u'middle', u'right']","[0.9, 0.5, 0.1]","[u'low', u'high', u'medium']","red",50,"middle","high","True","False",107,1300,NA
"A5BMKZRGHNSRT","Mon Oct 05 2020 10:20:38 GMT-0500 (Central Daylight Time)","Mon Oct 05 2020 10:25:43 GMT-0500 (Central Daylight Time)","Mozilla/5.0 (Windows NT 6.1; WOW64) AppleWebKit/537.36 (KHTML, like Gecko) Chrome/81.0.4200.0 Iron Safari/537.36",32,"[0.9, 0.5, 0.1]","[0.8, 0.4, 0.2]","[u'blue', u'red', u'black']","[u'left', u'middle', u'right']","[0.9, 0.5, 0.1]","[u'low', u'high', u'medium']","red",50,"middle","high","False","False",91,1250,NA
"A5BMKZRGHNSRT","Mon Oct 05 2020 10:20:38 GMT-0500 (Central Daylight Time)","Mon Oct 05 2020 10:25:43 GMT-0500 (Central Daylight Time)","Mozilla/5.0 (Windows NT 6.1; WOW64) AppleWebKit/537.36 (KHTML, like Gecko) Chrome/81.0.4200.0 Iron Safari/537.36",33,"[0.9, 0.5, 0.1]","[0.8, 0.4, 0.2]","[u'blue', u'red', u'black']","[u'left', u'middle', u'right']","[0.9, 0.5, 0.1]","[u'low', u'high', u'medium']","blue",49,"left","low","False","False",92,1200,NA
"A5BMKZRGHNSRT","Mon Oct 05 2020 10:20:38 GMT-0500 (Central Daylight Time)","Mon Oct 05 2020 10:25:43 GMT-0500 (Central Daylight Time)","Mozilla/5.0 (Windows NT 6.1; WOW64) AppleWebKit/537.36 (KHTML, like Gecko) Chrome/81.0.4200.0 Iron Safari/537.36",34,"[0.9, 0.5, 0.1]","[0.8, 0.4, 0.2]","[u'blue', u'red', u'black']","[u'left', u'middle', u'right']","[0.9, 0.5, 0.1]","[u'low', u'high', u'medium']","blue",49,"left","low","True","False",164,1300,NA
"A5BMKZRGHNSRT","Mon Oct 05 2020 10:20:38 GMT-0500 (Central Daylight Time)","Mon Oct 05 2020 10:25:43 GMT-0500 (Central Daylight Time)","Mozilla/5.0 (Windows NT 6.1; WOW64) AppleWebKit/537.36 (KHTML, like Gecko) Chrome/81.0.4200.0 Iron Safari/537.36",35,"[0.9, 0.5, 0.1]","[0.8, 0.4, 0.2]","[u'blue', u'red', u'black']","[u'left', u'middle', u'right']","[0.9, 0.5, 0.1]","[u'low', u'high', u'medium']","blue",49,"left","low","False","False",91,1250,NA
"A5BMKZRGHNSRT","Mon Oct 05 2020 10:20:38 GMT-0500 (Central Daylight Time)","Mon Oct 05 2020 10:25:43 GMT-0500 (Central Daylight Time)","Mozilla/5.0 (Windows NT 6.1; WOW64) AppleWebKit/537.36 (KHTML, like Gecko) Chrome/81.0.4200.0 Iron Safari/537.36",36,"[0.9, 0.5, 0.1]","[0.8, 0.4, 0.2]","[u'blue', u'red', u'black']","[u'left', u'middle', u'right']","[0.9, 0.5, 0.1]","[u'low', u'high', u'medium']","blue",49,"left","low","False","False",124,1200,NA
"A5BMKZRGHNSRT","Mon Oct 05 2020 10:20:38 GMT-0500 (Central Daylight Time)","Mon Oct 05 2020 10:25:43 GMT-0500 (Central Daylight Time)","Mozilla/5.0 (Windows NT 6.1; WOW64) AppleWebKit/537.36 (KHTML, like Gecko) Chrome/81.0.4200.0 Iron Safari/537.36",37,"[0.9, 0.5, 0.1]","[0.8, 0.4, 0.2]","[u'blue', u'red', u'black']","[u'left', u'middle', u'right']","[0.9, 0.5, 0.1]","[u'low', u'high', u'medium']","red",50,"middle","high","True","False",212,1300,NA
"A5BMKZRGHNSRT","Mon Oct 05 2020 10:20:38 GMT-0500 (Central Daylight Time)","Mon Oct 05 2020 10:25:43 GMT-0500 (Central Daylight Time)","Mozilla/5.0 (Windows NT 6.1; WOW64) AppleWebKit/537.36 (KHTML, like Gecko) Chrome/81.0.4200.0 Iron Safari/537.36",38,"[0.9, 0.5, 0.1]","[0.8, 0.4, 0.2]","[u'blue', u'red', u'black']","[u'left', u'middle', u'right']","[0.9, 0.5, 0.1]","[u'low', u'high', u'medium']","red",50,"middle","high","True","False",140,1400,NA
"A5BMKZRGHNSRT","Mon Oct 05 2020 10:20:38 GMT-0500 (Central Daylight Time)","Mon Oct 05 2020 10:25:43 GMT-0500 (Central Daylight Time)","Mozilla/5.0 (Windows NT 6.1; WOW64) AppleWebKit/537.36 (KHTML, like Gecko) Chrome/81.0.4200.0 Iron Safari/537.36",39,"[0.9, 0.5, 0.1]","[0.8, 0.4, 0.2]","[u'blue', u'red', u'black']","[u'left', u'middle', u'right']","[0.9, 0.5, 0.1]","[u'low', u'high', u'medium']","red",50,"middle","high","True","False",20,1500,NA
"A5BMKZRGHNSRT","Mon Oct 05 2020 10:20:38 GMT-0500 (Central Daylight Time)","Mon Oct 05 2020 10:25:43 GMT-0500 (Central Daylight Time)","Mozilla/5.0 (Windows NT 6.1; WOW64) AppleWebKit/537.36 (KHTML, like Gecko) Chrome/81.0.4200.0 Iron Safari/537.36",40,"[0.9, 0.5, 0.1]","[0.8, 0.4, 0.2]","[u'blue', u'red', u'black']","[u'left', u'middle', u'right']","[0.9, 0.5, 0.1]","[u'low', u'high', u'medium']","red",50,"middle","high","True","False",355,1600,NA
"A5BMKZRGHNSRT","Mon Oct 05 2020 10:20:38 GMT-0500 (Central Daylight Time)","Mon Oct 05 2020 10:25:43 GMT-0500 (Central Daylight Time)","Mozilla/5.0 (Windows NT 6.1; WOW64) AppleWebKit/537.36 (KHTML, like Gecko) Chrome/81.0.4200.0 Iron Safari/537.36",41,"[0.9, 0.5, 0.1]","[0.8, 0.4, 0.2]","[u'blue', u'red', u'black']","[u'left', u'middle', u'right']","[0.9, 0.5, 0.1]","[u'high', u'low', u'medium']","red",50,"middle","low","False","False",323,1550,NA
"A5BMKZRGHNSRT","Mon Oct 05 2020 10:20:38 GMT-0500 (Central Daylight Time)","Mon Oct 05 2020 10:25:43 GMT-0500 (Central Daylight Time)","Mozilla/5.0 (Windows NT 6.1; WOW64) AppleWebKit/537.36 (KHTML, like Gecko) Chrome/81.0.4200.0 Iron Safari/537.36",42,"[0.9, 0.5, 0.1]","[0.8, 0.4, 0.2]","[u'blue', u'red', u'black']","[u'left', u'middle', u'right']","[0.9, 0.5, 0.1]","[u'high', u'low', u'medium']","red",50,"middle","low","False","False",204,1500,NA
"A5BMKZRGHNSRT","Mon Oct 05 2020 10:20:38 GMT-0500 (Central Daylight Time)","Mon Oct 05 2020 10:25:43 GMT-0500 (Central Daylight Time)","Mozilla/5.0 (Windows NT 6.1; WOW64) AppleWebKit/537.36 (KHTML, like Gecko) Chrome/81.0.4200.0 Iron Safari/537.36",43,"[0.9, 0.5, 0.1]","[0.8, 0.4, 0.2]","[u'blue', u'red', u'black']","[u'left', u'middle', u'right']","[0.9, 0.5, 0.1]","[u'high', u'low', u'medium']","blue",49,"left","high","True","False",339,1600,NA
"A5BMKZRGHNSRT","Mon Oct 05 2020 10:20:38 GMT-0500 (Central Daylight Time)","Mon Oct 05 2020 10:25:43 GMT-0500 (Central Daylight Time)","Mozilla/5.0 (Windows NT 6.1; WOW64) AppleWebKit/537.36 (KHTML, like Gecko) Chrome/81.0.4200.0 Iron Safari/537.36",44,"[0.9, 0.5, 0.1]","[0.8, 0.4, 0.2]","[u'blue', u'red', u'black']","[u'left', u'middle', u'right']","[0.9, 0.5, 0.1]","[u'high', u'low', u'medium']","blue",49,"left","high","True","False",123,1700,NA
"A5BMKZRGHNSRT","Mon Oct 05 2020 10:20:38 GMT-0500 (Central Daylight Time)","Mon Oct 05 2020 10:25:43 GMT-0500 (Central Daylight Time)","Mozilla/5.0 (Windows NT 6.1; WOW64) AppleWebKit/537.36 (KHTML, like Gecko) Chrome/81.0.4200.0 Iron Safari/537.36",45,"[0.9, 0.5, 0.1]","[0.8, 0.4, 0.2]","[u'blue', u'red', u'black']","[u'left', u'middle', u'right']","[0.9, 0.5, 0.1]","[u'high', u'low', u'medium']","blue",49,"left","high","True","False",99,1800,NA
"A5BMKZRGHNSRT","Mon Oct 05 2020 10:20:38 GMT-0500 (Central Daylight Time)","Mon Oct 05 2020 10:25:43 GMT-0500 (Central Daylight Time)","Mozilla/5.0 (Windows NT 6.1; WOW64) AppleWebKit/537.36 (KHTML, like Gecko) Chrome/81.0.4200.0 Iron Safari/537.36",46,"[0.9, 0.5, 0.1]","[0.8, 0.4, 0.2]","[u'blue', u'red', u'black']","[u'left', u'middle', u'right']","[0.9, 0.5, 0.1]","[u'high', u'low', u'medium']","blue",49,"left","high","True","False",172,1900,NA
"A5BMKZRGHNSRT","Mon Oct 05 2020 10:20:38 GMT-0500 (Central Daylight Time)","Mon Oct 05 2020 10:25:43 GMT-0500 (Central Daylight Time)","Mozilla/5.0 (Windows NT 6.1; WOW64) AppleWebKit/537.36 (KHTML, like Gecko) Chrome/81.0.4200.0 Iron Safari/537.36",47,"[0.9, 0.5, 0.1]","[0.8, 0.4, 0.2]","[u'blue', u'red', u'black']","[u'left', u'middle', u'right']","[0.9, 0.5, 0.1]","[u'high', u'low', u'medium']","blue",49,"left","high","True","False",98,2000,NA
"A5BMKZRGHNSRT","Mon Oct 05 2020 10:20:38 GMT-0500 (Central Daylight Time)","Mon Oct 05 2020 10:25:43 GMT-0500 (Central Daylight Time)","Mozilla/5.0 (Windows NT 6.1; WOW64) AppleWebKit/537.36 (KHTML, like Gecko) Chrome/81.0.4200.0 Iron Safari/537.36",48,"[0.9, 0.5, 0.1]","[0.8, 0.4, 0.2]","[u'blue', u'red', u'black']","[u'left', u'middle', u'right']","[0.9, 0.5, 0.1]","[u'high', u'low', u'medium']","blue",49,"left","high","True","False",115,2100,NA
"A5BMKZRGHNSRT","Mon Oct 05 2020 10:20:38 GMT-0500 (Central Daylight Time)","Mon Oct 05 2020 10:25:43 GMT-0500 (Central Daylight Time)","Mozilla/5.0 (Windows NT 6.1; WOW64) AppleWebKit/537.36 (KHTML, like Gecko) Chrome/81.0.4200.0 Iron Safari/537.36",49,"[0.9, 0.5, 0.1]","[0.8, 0.4, 0.2]","[u'blue', u'red', u'black']","[u'left', u'middle', u'right']","[0.9, 0.5, 0.1]","[u'high', u'low', u'medium']","blue",49,"left","high","True","False",178,2200,NA
"A5BMKZRGHNSRT","Mon Oct 05 2020 10:20:38 GMT-0500 (Central Daylight Time)","Mon Oct 05 2020 10:25:43 GMT-0500 (Central Daylight Time)","Mozilla/5.0 (Windows NT 6.1; WOW64) AppleWebKit/537.36 (KHTML, like Gecko) Chrome/81.0.4200.0 Iron Safari/537.36",50,"[0.9, 0.5, 0.1]","[0.8, 0.4, 0.2]","[u'blue', u'red', u'black']","[u'left', u'middle', u'right']","[0.9, 0.5, 0.1]","[u'high', u'low', u'medium']","blue",49,"left","high","True","False",210,2300,NA
"A5BMKZRGHNSRT","Mon Oct 05 2020 10:20:38 GMT-0500 (Central Daylight Time)","Mon Oct 05 2020 10:25:43 GMT-0500 (Central Daylight Time)","Mozilla/5.0 (Windows NT 6.1; WOW64) AppleWebKit/537.36 (KHTML, like Gecko) Chrome/81.0.4200.0 Iron Safari/537.36",51,"[0.9, 0.5, 0.1]","[0.8, 0.4, 0.2]","[u'blue', u'red', u'black']","[u'left', u'middle', u'right']","[0.9, 0.5, 0.1]","[u'high', u'low', u'medium']","blue",49,"left","high","True","True",146,2400,NA
"A5BMKZRGHNSRT","Mon Oct 05 2020 10:20:38 GMT-0500 (Central Daylight Time)","Mon Oct 05 2020 10:25:43 GMT-0500 (Central Daylight Time)","Mozilla/5.0 (Windows NT 6.1; WOW64) AppleWebKit/537.36 (KHTML, like Gecko) Chrome/81.0.4200.0 Iron Safari/537.36",52,"[0.9, 0.5, 0.1]","[0.8, 0.4, 0.2]","[u'blue', u'red', u'black']","[u'left', u'middle', u'right']","[0.9, 0.5, 0.1]","[u'medium', u'high', u'low']","blue",49,"left","medium","False","False",146,2350,NA
"A5BMKZRGHNSRT","Mon Oct 05 2020 10:20:38 GMT-0500 (Central Daylight Time)","Mon Oct 05 2020 10:25:43 GMT-0500 (Central Daylight Time)","Mozilla/5.0 (Windows NT 6.1; WOW64) AppleWebKit/537.36 (KHTML, like Gecko) Chrome/81.0.4200.0 Iron Safari/537.36",53,"[0.9, 0.5, 0.1]","[0.8, 0.4, 0.2]","[u'blue', u'red', u'black']","[u'left', u'middle', u'right']","[0.9, 0.5, 0.1]","[u'medium', u'high', u'low']","blue",49,"left","medium","True","False",155,2450,NA
"A5BMKZRGHNSRT","Mon Oct 05 2020 10:20:38 GMT-0500 (Central Daylight Time)","Mon Oct 05 2020 10:25:43 GMT-0500 (Central Daylight Time)","Mozilla/5.0 (Windows NT 6.1; WOW64) AppleWebKit/537.36 (KHTML, like Gecko) Chrome/81.0.4200.0 Iron Safari/537.36",54,"[0.9, 0.5, 0.1]","[0.8, 0.4, 0.2]","[u'blue', u'red', u'black']","[u'left', u'middle', u'right']","[0.9, 0.5, 0.1]","[u'medium', u'high', u'low']","blue",49,"left","medium","True","False",234,2550,NA
"A5BMKZRGHNSRT","Mon Oct 05 2020 10:20:38 GMT-0500 (Central Daylight Time)","Mon Oct 05 2020 10:25:43 GMT-0500 (Central Daylight Time)","Mozilla/5.0 (Windows NT 6.1; WOW64) AppleWebKit/537.36 (KHTML, like Gecko) Chrome/81.0.4200.0 Iron Safari/537.36",55,"[0.9, 0.5, 0.1]","[0.8, 0.4, 0.2]","[u'blue', u'red', u'black']","[u'left', u'middle', u'right']","[0.9, 0.5, 0.1]","[u'medium', u'high', u'low']","blue",49,"left","medium","False","False",283,2500,NA
"A5BMKZRGHNSRT","Mon Oct 05 2020 10:20:38 GMT-0500 (Central Daylight Time)","Mon Oct 05 2020 10:25:43 GMT-0500 (Central Daylight Time)","Mozilla/5.0 (Windows NT 6.1; WOW64) AppleWebKit/537.36 (KHTML, like Gecko) Chrome/81.0.4200.0 Iron Safari/537.36",56,"[0.9, 0.5, 0.1]","[0.8, 0.4, 0.2]","[u'blue', u'red', u'black']","[u'left', u'middle', u'right']","[0.9, 0.5, 0.1]","[u'medium', u'high', u'low']","blue",49,"left","medium","True","False",211,2600,NA
"A5BMKZRGHNSRT","Mon Oct 05 2020 10:20:38 GMT-0500 (Central Daylight Time)","Mon Oct 05 2020 10:25:43 GMT-0500 (Central Daylight Time)","Mozilla/5.0 (Windows NT 6.1; WOW64) AppleWebKit/537.36 (KHTML, like Gecko) Chrome/81.0.4200.0 Iron Safari/537.36",57,"[0.9, 0.5, 0.1]","[0.8, 0.4, 0.2]","[u'blue', u'red', u'black']","[u'left', u'middle', u'right']","[0.9, 0.5, 0.1]","[u'medium', u'high', u'low']","blue",49,"left","medium","False","False",59,2550,NA
"A5BMKZRGHNSRT","Mon Oct 05 2020 10:20:38 GMT-0500 (Central Daylight Time)","Mon Oct 05 2020 10:25:43 GMT-0500 (Central Daylight Time)","Mozilla/5.0 (Windows NT 6.1; WOW64) AppleWebKit/537.36 (KHTML, like Gecko) Chrome/81.0.4200.0 Iron Safari/537.36",58,"[0.9, 0.5, 0.1]","[0.8, 0.4, 0.2]","[u'blue', u'red', u'black']","[u'left', u'middle', u'right']","[0.9, 0.5, 0.1]","[u'medium', u'high', u'low']","blue",49,"left","medium","False","False",227,2500,NA
"A5BMKZRGHNSRT","Mon Oct 05 2020 10:20:38 GMT-0500 (Central Daylight Time)","Mon Oct 05 2020 10:25:43 GMT-0500 (Central Daylight Time)","Mozilla/5.0 (Windows NT 6.1; WOW64) AppleWebKit/537.36 (KHTML, like Gecko) Chrome/81.0.4200.0 Iron Safari/537.36",59,"[0.9, 0.5, 0.1]","[0.8, 0.4, 0.2]","[u'blue', u'red', u'black']","[u'left', u'middle', u'right']","[0.9, 0.5, 0.1]","[u'medium', u'high', u'low']","red",50,"middle","high","True","False",92,2600,NA
"A5BMKZRGHNSRT","Mon Oct 05 2020 10:20:38 GMT-0500 (Central Daylight Time)","Mon Oct 05 2020 10:25:43 GMT-0500 (Central Daylight Time)","Mozilla/5.0 (Windows NT 6.1; WOW64) AppleWebKit/537.36 (KHTML, like Gecko) Chrome/81.0.4200.0 Iron Safari/537.36",60,"[0.9, 0.5, 0.1]","[0.8, 0.4, 0.2]","[u'blue', u'red', u'black']","[u'left', u'middle', u'right']","[0.9, 0.5, 0.1]","[u'medium', u'high', u'low']","red",50,"middle","high","True","False",50,2700,NA
"A5BMKZRGHNSRT","Mon Oct 05 2020 10:20:38 GMT-0500 (Central Daylight Time)","Mon Oct 05 2020 10:25:43 GMT-0500 (Central Daylight Time)","Mozilla/5.0 (Windows NT 6.1; WOW64) AppleWebKit/537.36 (KHTML, like Gecko) Chrome/81.0.4200.0 Iron Safari/537.36",61,"[0.9, 0.5, 0.1]","[0.8, 0.4, 0.2]","[u'blue', u'red', u'black']","[u'left', u'middle', u'right']","[0.9, 0.5, 0.1]","[u'medium', u'high', u'low']","red",50,"middle","high","True","False",266,2800,NA
"A5BMKZRGHNSRT","Mon Oct 05 2020 10:20:38 GMT-0500 (Central Daylight Time)","Mon Oct 05 2020 10:25:43 GMT-0500 (Central Daylight Time)","Mozilla/5.0 (Windows NT 6.1; WOW64) AppleWebKit/537.36 (KHTML, like Gecko) Chrome/81.0.4200.0 Iron Safari/537.36",62,"[0.9, 0.5, 0.1]","[0.8, 0.4, 0.2]","[u'blue', u'red', u'black']","[u'left', u'middle', u'right']","[0.9, 0.5, 0.1]","[u'medium', u'high', u'low']","red",50,"middle","high","False","False",155,2750,NA
"A5BMKZRGHNSRT","Mon Oct 05 2020 10:20:38 GMT-0500 (Central Daylight Time)","Mon Oct 05 2020 10:25:43 GMT-0500 (Central Daylight Time)","Mozilla/5.0 (Windows NT 6.1; WOW64) AppleWebKit/537.36 (KHTML, like Gecko) Chrome/81.0.4200.0 Iron Safari/537.36",63,"[0.9, 0.5, 0.1]","[0.8, 0.4, 0.2]","[u'blue', u'red', u'black']","[u'left', u'middle', u'right']","[0.9, 0.5, 0.1]","[u'medium', u'high', u'low']","black",51,"right","low","False","False",299,2700,NA
"A5BMKZRGHNSRT","Mon Oct 05 2020 10:20:38 GMT-0500 (Central Daylight Time)","Mon Oct 05 2020 10:25:43 GMT-0500 (Central Daylight Time)","Mozilla/5.0 (Windows NT 6.1; WOW64) AppleWebKit/537.36 (KHTML, like Gecko) Chrome/81.0.4200.0 Iron Safari/537.36",64,"[0.9, 0.5, 0.1]","[0.8, 0.4, 0.2]","[u'blue', u'red', u'black']","[u'left', u'middle', u'right']","[0.9, 0.5, 0.1]","[u'medium', u'high', u'low']","black",51,"right","low","False","False",178,2650,NA
"A5BMKZRGHNSRT","Mon Oct 05 2020 10:20:38 GMT-0500 (Central Daylight Time)","Mon Oct 05 2020 10:25:43 GMT-0500 (Central Daylight Time)","Mozilla/5.0 (Windows NT 6.1; WOW64) AppleWebKit/537.36 (KHTML, like Gecko) Chrome/81.0.4200.0 Iron Safari/537.36",65,"[0.9, 0.5, 0.1]","[0.8, 0.4, 0.2]","[u'blue', u'red', u'black']","[u'left', u'middle', u'right']","[0.9, 0.5, 0.1]","[u'medium', u'high', u'low']","red",50,"middle","high","True","False",52,2750,NA
"A5BMKZRGHNSRT","Mon Oct 05 2020 10:20:38 GMT-0500 (Central Daylight Time)","Mon Oct 05 2020 10:25:43 GMT-0500 (Central Daylight Time)","Mozilla/5.0 (Windows NT 6.1; WOW64) AppleWebKit/537.36 (KHTML, like Gecko) Chrome/81.0.4200.0 Iron Safari/537.36",66,"[0.9, 0.5, 0.1]","[0.8, 0.4, 0.2]","[u'blue', u'red', u'black']","[u'left', u'middle', u'right']","[0.9, 0.5, 0.1]","[u'medium', u'high', u'low']","red",50,"middle","high","True","False",82,2850,NA
"A5BMKZRGHNSRT","Mon Oct 05 2020 10:20:38 GMT-0500 (Central Daylight Time)","Mon Oct 05 2020 10:25:43 GMT-0500 (Central Daylight Time)","Mozilla/5.0 (Windows NT 6.1; WOW64) AppleWebKit/537.36 (KHTML, like Gecko) Chrome/81.0.4200.0 Iron Safari/537.36",67,"[0.9, 0.5, 0.1]","[0.8, 0.4, 0.2]","[u'blue', u'red', u'black']","[u'left', u'middle', u'right']","[0.9, 0.5, 0.1]","[u'medium', u'high', u'low']","red",50,"middle","high","True","False",59,2950,NA
"A5BMKZRGHNSRT","Mon Oct 05 2020 10:20:38 GMT-0500 (Central Daylight Time)","Mon Oct 05 2020 10:25:43 GMT-0500 (Central Daylight Time)","Mozilla/5.0 (Windows NT 6.1; WOW64) AppleWebKit/537.36 (KHTML, like Gecko) Chrome/81.0.4200.0 Iron Safari/537.36",68,"[0.9, 0.5, 0.1]","[0.8, 0.4, 0.2]","[u'blue', u'red', u'black']","[u'left', u'middle', u'right']","[0.9, 0.5, 0.1]","[u'medium', u'high', u'low']","red",50,"middle","high","False","False",59,2900,NA
"A5BMKZRGHNSRT","Mon Oct 05 2020 10:20:38 GMT-0500 (Central Daylight Time)","Mon Oct 05 2020 10:25:43 GMT-0500 (Central Daylight Time)","Mozilla/5.0 (Windows NT 6.1; WOW64) AppleWebKit/537.36 (KHTML, like Gecko) Chrome/81.0.4200.0 Iron Safari/537.36",69,"[0.9, 0.5, 0.1]","[0.8, 0.4, 0.2]","[u'blue', u'red', u'black']","[u'left', u'middle', u'right']","[0.9, 0.5, 0.1]","[u'medium', u'high', u'low']","red",50,"middle","high","True","False",115,3000,NA
"A5BMKZRGHNSRT","Mon Oct 05 2020 10:20:38 GMT-0500 (Central Daylight Time)","Mon Oct 05 2020 10:25:43 GMT-0500 (Central Daylight Time)","Mozilla/5.0 (Windows NT 6.1; WOW64) AppleWebKit/537.36 (KHTML, like Gecko) Chrome/81.0.4200.0 Iron Safari/537.36",70,"[0.9, 0.5, 0.1]","[0.8, 0.4, 0.2]","[u'blue', u'red', u'black']","[u'left', u'middle', u'right']","[0.9, 0.5, 0.1]","[u'medium', u'high', u'low']","red",50,"middle","high","True","False",107,3100,NA
"A5BMKZRGHNSRT","Mon Oct 05 2020 10:20:38 GMT-0500 (Central Daylight Time)","Mon Oct 05 2020 10:25:43 GMT-0500 (Central Daylight Time)","Mozilla/5.0 (Windows NT 6.1; WOW64) AppleWebKit/537.36 (KHTML, like Gecko) Chrome/81.0.4200.0 Iron Safari/537.36",71,"[0.9, 0.5, 0.1]","[0.8, 0.4, 0.2]","[u'blue', u'red', u'black']","[u'left', u'middle', u'right']","[0.9, 0.5, 0.1]","[u'medium', u'high', u'low']","red",50,"middle","high","False","False",83,3050,NA
"A5BMKZRGHNSRT","Mon Oct 05 2020 10:20:38 GMT-0500 (Central Daylight Time)","Mon Oct 05 2020 10:25:43 GMT-0500 (Central Daylight Time)","Mozilla/5.0 (Windows NT 6.1; WOW64) AppleWebKit/537.36 (KHTML, like Gecko) Chrome/81.0.4200.0 Iron Safari/537.36",72,"[0.9, 0.5, 0.1]","[0.8, 0.4, 0.2]","[u'blue', u'red', u'black']","[u'left', u'middle', u'right']","[0.9, 0.5, 0.1]","[u'medium', u'high', u'low']","red",50,"middle","high","True","False",347,3150,NA
"A5BMKZRGHNSRT","Mon Oct 05 2020 10:20:38 GMT-0500 (Central Daylight Time)","Mon Oct 05 2020 10:25:43 GMT-0500 (Central Daylight Time)","Mozilla/5.0 (Windows NT 6.1; WOW64) AppleWebKit/537.36 (KHTML, like Gecko) Chrome/81.0.4200.0 Iron Safari/537.36",73,"[0.9, 0.5, 0.1]","[0.8, 0.4, 0.2]","[u'blue', u'red', u'black']","[u'left', u'middle', u'right']","[0.9, 0.5, 0.1]","[u'medium', u'high', u'low']","red",50,"middle","high","True","True",258,3250,NA
"A5BMKZRGHNSRT","Mon Oct 05 2020 10:20:38 GMT-0500 (Central Daylight Time)","Mon Oct 05 2020 10:25:43 GMT-0500 (Central Daylight Time)","Mozilla/5.0 (Windows NT 6.1; WOW64) AppleWebKit/537.36 (KHTML, like Gecko) Chrome/81.0.4200.0 Iron Safari/537.36",74,"[0.9, 0.5, 0.1]","[0.8, 0.4, 0.2]","[u'blue', u'red', u'black']","[u'left', u'middle', u'right']","[0.9, 0.5, 0.1]","[u'low', u'medium', u'high']","red",50,"middle","medium","False","False",260,3200,NA
"A5BMKZRGHNSRT","Mon Oct 05 2020 10:20:38 GMT-0500 (Central Daylight Time)","Mon Oct 05 2020 10:25:43 GMT-0500 (Central Daylight Time)","Mozilla/5.0 (Windows NT 6.1; WOW64) AppleWebKit/537.36 (KHTML, like Gecko) Chrome/81.0.4200.0 Iron Safari/537.36",75,"[0.9, 0.5, 0.1]","[0.8, 0.4, 0.2]","[u'blue', u'red', u'black']","[u'left', u'middle', u'right']","[0.9, 0.5, 0.1]","[u'low', u'medium', u'high']","red",50,"middle","medium","False","False",212,3150,NA
"A5BMKZRGHNSRT","Mon Oct 05 2020 10:20:38 GMT-0500 (Central Daylight Time)","Mon Oct 05 2020 10:25:43 GMT-0500 (Central Daylight Time)","Mozilla/5.0 (Windows NT 6.1; WOW64) AppleWebKit/537.36 (KHTML, like Gecko) Chrome/81.0.4200.0 Iron Safari/537.36",76,"[0.9, 0.5, 0.1]","[0.8, 0.4, 0.2]","[u'blue', u'red', u'black']","[u'left', u'middle', u'right']","[0.9, 0.5, 0.1]","[u'low', u'medium', u'high']","blue",49,"left","low","False","False",114,3100,NA
"A5BMKZRGHNSRT","Mon Oct 05 2020 10:20:38 GMT-0500 (Central Daylight Time)","Mon Oct 05 2020 10:25:43 GMT-0500 (Central Daylight Time)","Mozilla/5.0 (Windows NT 6.1; WOW64) AppleWebKit/537.36 (KHTML, like Gecko) Chrome/81.0.4200.0 Iron Safari/537.36",77,"[0.9, 0.5, 0.1]","[0.8, 0.4, 0.2]","[u'blue', u'red', u'black']","[u'left', u'middle', u'right']","[0.9, 0.5, 0.1]","[u'low', u'medium', u'high']","blue",49,"left","low","False","False",267,3050,NA
"A5BMKZRGHNSRT","Mon Oct 05 2020 10:20:38 GMT-0500 (Central Daylight Time)","Mon Oct 05 2020 10:25:43 GMT-0500 (Central Daylight Time)","Mozilla/5.0 (Windows NT 6.1; WOW64) AppleWebKit/537.36 (KHTML, like Gecko) Chrome/81.0.4200.0 Iron Safari/537.36",78,"[0.9, 0.5, 0.1]","[0.8, 0.4, 0.2]","[u'blue', u'red', u'black']","[u'left', u'middle', u'right']","[0.9, 0.5, 0.1]","[u'low', u'medium', u'high']","red",50,"middle","medium","True","False",156,3150,NA
"A5BMKZRGHNSRT","Mon Oct 05 2020 10:20:38 GMT-0500 (Central Daylight Time)","Mon Oct 05 2020 10:25:43 GMT-0500 (Central Daylight Time)","Mozilla/5.0 (Windows NT 6.1; WOW64) AppleWebKit/537.36 (KHTML, like Gecko) Chrome/81.0.4200.0 Iron Safari/537.36",79,"[0.9, 0.5, 0.1]","[0.8, 0.4, 0.2]","[u'blue', u'red', u'black']","[u'left', u'middle', u'right']","[0.9, 0.5, 0.1]","[u'low', u'medium', u'high']","red",50,"middle","medium","False","False",210,3100,NA
"A5BMKZRGHNSRT","Mon Oct 05 2020 10:20:38 GMT-0500 (Central Daylight Time)","Mon Oct 05 2020 10:25:43 GMT-0500 (Central Daylight Time)","Mozilla/5.0 (Windows NT 6.1; WOW64) AppleWebKit/537.36 (KHTML, like Gecko) Chrome/81.0.4200.0 Iron Safari/537.36",80,"[0.9, 0.5, 0.1]","[0.8, 0.4, 0.2]","[u'blue', u'red', u'black']","[u'left', u'middle', u'right']","[0.9, 0.5, 0.1]","[u'low', u'medium', u'high']","red",50,"middle","medium","True","False",147,3200,NA
"A5BMKZRGHNSRT","Mon Oct 05 2020 10:20:38 GMT-0500 (Central Daylight Time)","Mon Oct 05 2020 10:25:43 GMT-0500 (Central Daylight Time)","Mozilla/5.0 (Windows NT 6.1; WOW64) AppleWebKit/537.36 (KHTML, like Gecko) Chrome/81.0.4200.0 Iron Safari/537.36",81,"[0.9, 0.5, 0.1]","[0.8, 0.4, 0.2]","[u'blue', u'red', u'black']","[u'left', u'middle', u'right']","[0.8, 0.4, 0.2]","[u'low', u'high', u'medium']","red",50,"middle","high","False","False",299,3150,NA
"A5BMKZRGHNSRT","Mon Oct 05 2020 10:20:38 GMT-0500 (Central Daylight Time)","Mon Oct 05 2020 10:25:43 GMT-0500 (Central Daylight Time)","Mozilla/5.0 (Windows NT 6.1; WOW64) AppleWebKit/537.36 (KHTML, like Gecko) Chrome/81.0.4200.0 Iron Safari/537.36",82,"[0.9, 0.5, 0.1]","[0.8, 0.4, 0.2]","[u'blue', u'red', u'black']","[u'left', u'middle', u'right']","[0.8, 0.4, 0.2]","[u'low', u'high', u'medium']","red",50,"middle","high","False","False",259,3100,NA
"A5BMKZRGHNSRT","Mon Oct 05 2020 10:20:38 GMT-0500 (Central Daylight Time)","Mon Oct 05 2020 10:25:43 GMT-0500 (Central Daylight Time)","Mozilla/5.0 (Windows NT 6.1; WOW64) AppleWebKit/537.36 (KHTML, like Gecko) Chrome/81.0.4200.0 Iron Safari/537.36",83,"[0.9, 0.5, 0.1]","[0.8, 0.4, 0.2]","[u'blue', u'red', u'black']","[u'left', u'middle', u'right']","[0.8, 0.4, 0.2]","[u'low', u'high', u'medium']","blue",49,"left","low","False","False",52,3050,NA
"A5BMKZRGHNSRT","Mon Oct 05 2020 10:20:38 GMT-0500 (Central Daylight Time)","Mon Oct 05 2020 10:25:43 GMT-0500 (Central Daylight Time)","Mozilla/5.0 (Windows NT 6.1; WOW64) AppleWebKit/537.36 (KHTML, like Gecko) Chrome/81.0.4200.0 Iron Safari/537.36",84,"[0.9, 0.5, 0.1]","[0.8, 0.4, 0.2]","[u'blue', u'red', u'black']","[u'left', u'middle', u'right']","[0.8, 0.4, 0.2]","[u'low', u'high', u'medium']","blue",49,"left","low","True","False",218,3150,NA
"A5BMKZRGHNSRT","Mon Oct 05 2020 10:20:38 GMT-0500 (Central Daylight Time)","Mon Oct 05 2020 10:25:43 GMT-0500 (Central Daylight Time)","Mozilla/5.0 (Windows NT 6.1; WOW64) AppleWebKit/537.36 (KHTML, like Gecko) Chrome/81.0.4200.0 Iron Safari/537.36",85,"[0.9, 0.5, 0.1]","[0.8, 0.4, 0.2]","[u'blue', u'red', u'black']","[u'left', u'middle', u'right']","[0.8, 0.4, 0.2]","[u'low', u'high', u'medium']","blue",49,"left","low","False","False",332,3100,NA
"A5BMKZRGHNSRT","Mon Oct 05 2020 10:20:38 GMT-0500 (Central Daylight Time)","Mon Oct 05 2020 10:25:43 GMT-0500 (Central Daylight Time)","Mozilla/5.0 (Windows NT 6.1; WOW64) AppleWebKit/537.36 (KHTML, like Gecko) Chrome/81.0.4200.0 Iron Safari/537.36",86,"[0.9, 0.5, 0.1]","[0.8, 0.4, 0.2]","[u'blue', u'red', u'black']","[u'left', u'middle', u'right']","[0.8, 0.4, 0.2]","[u'low', u'high', u'medium']","blue",49,"left","low","False","False",267,3050,NA
"A5BMKZRGHNSRT","Mon Oct 05 2020 10:20:38 GMT-0500 (Central Daylight Time)","Mon Oct 05 2020 10:25:43 GMT-0500 (Central Daylight Time)","Mozilla/5.0 (Windows NT 6.1; WOW64) AppleWebKit/537.36 (KHTML, like Gecko) Chrome/81.0.4200.0 Iron Safari/537.36",87,"[0.9, 0.5, 0.1]","[0.8, 0.4, 0.2]","[u'blue', u'red', u'black']","[u'left', u'middle', u'right']","[0.8, 0.4, 0.2]","[u'low', u'high', u'medium']","red",50,"middle","high","True","False",59,3150,NA
"A5BMKZRGHNSRT","Mon Oct 05 2020 10:20:38 GMT-0500 (Central Daylight Time)","Mon Oct 05 2020 10:25:43 GMT-0500 (Central Daylight Time)","Mozilla/5.0 (Windows NT 6.1; WOW64) AppleWebKit/537.36 (KHTML, like Gecko) Chrome/81.0.4200.0 Iron Safari/537.36",88,"[0.9, 0.5, 0.1]","[0.8, 0.4, 0.2]","[u'blue', u'red', u'black']","[u'left', u'middle', u'right']","[0.8, 0.4, 0.2]","[u'low', u'high', u'medium']","red",50,"middle","high","True","False",139,3250,NA
"A5BMKZRGHNSRT","Mon Oct 05 2020 10:20:38 GMT-0500 (Central Daylight Time)","Mon Oct 05 2020 10:25:43 GMT-0500 (Central Daylight Time)","Mozilla/5.0 (Windows NT 6.1; WOW64) AppleWebKit/537.36 (KHTML, like Gecko) Chrome/81.0.4200.0 Iron Safari/537.36",89,"[0.9, 0.5, 0.1]","[0.8, 0.4, 0.2]","[u'blue', u'red', u'black']","[u'left', u'middle', u'right']","[0.8, 0.4, 0.2]","[u'low', u'high', u'medium']","red",50,"middle","high","True","False",100,3350,NA
"A5BMKZRGHNSRT","Mon Oct 05 2020 10:20:38 GMT-0500 (Central Daylight Time)","Mon Oct 05 2020 10:25:43 GMT-0500 (Central Daylight Time)","Mozilla/5.0 (Windows NT 6.1; WOW64) AppleWebKit/537.36 (KHTML, like Gecko) Chrome/81.0.4200.0 Iron Safari/537.36",90,"[0.9, 0.5, 0.1]","[0.8, 0.4, 0.2]","[u'blue', u'red', u'black']","[u'left', u'middle', u'right']","[0.8, 0.4, 0.2]","[u'low', u'high', u'medium']","red",50,"middle","high","True","False",114,3450,NA
"A5BMKZRGHNSRT","Mon Oct 05 2020 10:20:38 GMT-0500 (Central Daylight Time)","Mon Oct 05 2020 10:25:43 GMT-0500 (Central Daylight Time)","Mozilla/5.0 (Windows NT 6.1; WOW64) AppleWebKit/537.36 (KHTML, like Gecko) Chrome/81.0.4200.0 Iron Safari/537.36",91,"[0.9, 0.5, 0.1]","[0.8, 0.4, 0.2]","[u'blue', u'red', u'black']","[u'left', u'middle', u'right']","[0.8, 0.4, 0.2]","[u'low', u'high', u'medium']","red",50,"middle","high","False","False",59,3400,NA
"A5BMKZRGHNSRT","Mon Oct 05 2020 10:20:38 GMT-0500 (Central Daylight Time)","Mon Oct 05 2020 10:25:43 GMT-0500 (Central Daylight Time)","Mozilla/5.0 (Windows NT 6.1; WOW64) AppleWebKit/537.36 (KHTML, like Gecko) Chrome/81.0.4200.0 Iron Safari/537.36",92,"[0.9, 0.5, 0.1]","[0.8, 0.4, 0.2]","[u'blue', u'red', u'black']","[u'left', u'middle', u'right']","[0.8, 0.4, 0.2]","[u'low', u'high', u'medium']","red",50,"middle","high","True","False",43,3500,NA
"A5BMKZRGHNSRT","Mon Oct 05 2020 10:20:38 GMT-0500 (Central Daylight Time)","Mon Oct 05 2020 10:25:43 GMT-0500 (Central Daylight Time)","Mozilla/5.0 (Windows NT 6.1; WOW64) AppleWebKit/537.36 (KHTML, like Gecko) Chrome/81.0.4200.0 Iron Safari/537.36",93,"[0.9, 0.5, 0.1]","[0.8, 0.4, 0.2]","[u'blue', u'red', u'black']","[u'left', u'middle', u'right']","[0.8, 0.4, 0.2]","[u'low', u'high', u'medium']","red",50,"middle","high","False","False",163,3450,NA
"A5BMKZRGHNSRT","Mon Oct 05 2020 10:20:38 GMT-0500 (Central Daylight Time)","Mon Oct 05 2020 10:25:43 GMT-0500 (Central Daylight Time)","Mozilla/5.0 (Windows NT 6.1; WOW64) AppleWebKit/537.36 (KHTML, like Gecko) Chrome/81.0.4200.0 Iron Safari/537.36",94,"[0.9, 0.5, 0.1]","[0.8, 0.4, 0.2]","[u'blue', u'red', u'black']","[u'left', u'middle', u'right']","[0.8, 0.4, 0.2]","[u'low', u'high', u'medium']","red",50,"middle","high","False","False",467,3400,NA
"A5BMKZRGHNSRT","Mon Oct 05 2020 10:20:38 GMT-0500 (Central Daylight Time)","Mon Oct 05 2020 10:25:43 GMT-0500 (Central Daylight Time)","Mozilla/5.0 (Windows NT 6.1; WOW64) AppleWebKit/537.36 (KHTML, like Gecko) Chrome/81.0.4200.0 Iron Safari/537.36",95,"[0.9, 0.5, 0.1]","[0.8, 0.4, 0.2]","[u'blue', u'red', u'black']","[u'left', u'middle', u'right']","[0.8, 0.4, 0.2]","[u'low', u'high', u'medium']","black",51,"right","medium","False","False",276,3350,NA
"A5BMKZRGHNSRT","Mon Oct 05 2020 10:20:38 GMT-0500 (Central Daylight Time)","Mon Oct 05 2020 10:25:43 GMT-0500 (Central Daylight Time)","Mozilla/5.0 (Windows NT 6.1; WOW64) AppleWebKit/537.36 (KHTML, like Gecko) Chrome/81.0.4200.0 Iron Safari/537.36",96,"[0.9, 0.5, 0.1]","[0.8, 0.4, 0.2]","[u'blue', u'red', u'black']","[u'left', u'middle', u'right']","[0.8, 0.4, 0.2]","[u'low', u'high', u'medium']","black",51,"right","medium","True","False",145,3450,NA
"A5BMKZRGHNSRT","Mon Oct 05 2020 10:20:38 GMT-0500 (Central Daylight Time)","Mon Oct 05 2020 10:25:43 GMT-0500 (Central Daylight Time)","Mozilla/5.0 (Windows NT 6.1; WOW64) AppleWebKit/537.36 (KHTML, like Gecko) Chrome/81.0.4200.0 Iron Safari/537.36",97,"[0.9, 0.5, 0.1]","[0.8, 0.4, 0.2]","[u'blue', u'red', u'black']","[u'left', u'middle', u'right']","[0.8, 0.4, 0.2]","[u'low', u'high', u'medium']","black",51,"right","medium","False","False",196,3400,NA
"A5BMKZRGHNSRT","Mon Oct 05 2020 10:20:38 GMT-0500 (Central Daylight Time)","Mon Oct 05 2020 10:25:43 GMT-0500 (Central Daylight Time)","Mozilla/5.0 (Windows NT 6.1; WOW64) AppleWebKit/537.36 (KHTML, like Gecko) Chrome/81.0.4200.0 Iron Safari/537.36",98,"[0.9, 0.5, 0.1]","[0.8, 0.4, 0.2]","[u'blue', u'red', u'black']","[u'left', u'middle', u'right']","[0.8, 0.4, 0.2]","[u'low', u'high', u'medium']","black",51,"right","medium","False","False",204,3350,NA
"A5BMKZRGHNSRT","Mon Oct 05 2020 10:20:38 GMT-0500 (Central Daylight Time)","Mon Oct 05 2020 10:25:43 GMT-0500 (Central Daylight Time)","Mozilla/5.0 (Windows NT 6.1; WOW64) AppleWebKit/537.36 (KHTML, like Gecko) Chrome/81.0.4200.0 Iron Safari/537.36",99,"[0.9, 0.5, 0.1]","[0.8, 0.4, 0.2]","[u'blue', u'red', u'black']","[u'left', u'middle', u'right']","[0.8, 0.4, 0.2]","[u'low', u'high', u'medium']","red",50,"middle","high","True","False",219,3450,NA
"A5BMKZRGHNSRT","Mon Oct 05 2020 10:20:38 GMT-0500 (Central Daylight Time)","Mon Oct 05 2020 10:25:43 GMT-0500 (Central Daylight Time)","Mozilla/5.0 (Windows NT 6.1; WOW64) AppleWebKit/537.36 (KHTML, like Gecko) Chrome/81.0.4200.0 Iron Safari/537.36",100,"[0.9, 0.5, 0.1]","[0.8, 0.4, 0.2]","[u'blue', u'red', u'black']","[u'left', u'middle', u'right']","[0.8, 0.4, 0.2]","[u'low', u'high', u'medium']","red",50,"middle","high","True","False",131,3550,NA
"A5BMKZRGHNSRT","Mon Oct 05 2020 10:20:38 GMT-0500 (Central Daylight Time)","Mon Oct 05 2020 10:25:43 GMT-0500 (Central Daylight Time)","Mozilla/5.0 (Windows NT 6.1; WOW64) AppleWebKit/537.36 (KHTML, like Gecko) Chrome/81.0.4200.0 Iron Safari/537.36",101,"[0.9, 0.5, 0.1]","[0.8, 0.4, 0.2]","[u'blue', u'red', u'black']","[u'left', u'middle', u'right']","[0.8, 0.4, 0.2]","[u'low', u'high', u'medium']","red",50,"middle","high","True","False",125,3650,NA
"A5BMKZRGHNSRT","Mon Oct 05 2020 10:20:38 GMT-0500 (Central Daylight Time)","Mon Oct 05 2020 10:25:43 GMT-0500 (Central Daylight Time)","Mozilla/5.0 (Windows NT 6.1; WOW64) AppleWebKit/537.36 (KHTML, like Gecko) Chrome/81.0.4200.0 Iron Safari/537.36",102,"[0.9, 0.5, 0.1]","[0.8, 0.4, 0.2]","[u'blue', u'red', u'black']","[u'left', u'middle', u'right']","[0.8, 0.4, 0.2]","[u'low', u'high', u'medium']","red",50,"middle","high","False","False",58,3600,NA
"A5BMKZRGHNSRT","Mon Oct 05 2020 10:20:38 GMT-0500 (Central Daylight Time)","Mon Oct 05 2020 10:25:43 GMT-0500 (Central Daylight Time)","Mozilla/5.0 (Windows NT 6.1; WOW64) AppleWebKit/537.36 (KHTML, like Gecko) Chrome/81.0.4200.0 Iron Safari/537.36",103,"[0.9, 0.5, 0.1]","[0.8, 0.4, 0.2]","[u'blue', u'red', u'black']","[u'left', u'middle', u'right']","[0.8, 0.4, 0.2]","[u'low', u'high', u'medium']","red",50,"middle","high","True","False",35,3700,NA
"A5BMKZRGHNSRT","Mon Oct 05 2020 10:20:38 GMT-0500 (Central Daylight Time)","Mon Oct 05 2020 10:25:43 GMT-0500 (Central Daylight Time)","Mozilla/5.0 (Windows NT 6.1; WOW64) AppleWebKit/537.36 (KHTML, like Gecko) Chrome/81.0.4200.0 Iron Safari/537.36",104,"[0.9, 0.5, 0.1]","[0.8, 0.4, 0.2]","[u'blue', u'red', u'black']","[u'left', u'middle', u'right']","[0.8, 0.4, 0.2]","[u'low', u'high', u'medium']","red",50,"middle","high","True","False",179,3800,NA
"A5BMKZRGHNSRT","Mon Oct 05 2020 10:20:38 GMT-0500 (Central Daylight Time)","Mon Oct 05 2020 10:25:43 GMT-0500 (Central Daylight Time)","Mozilla/5.0 (Windows NT 6.1; WOW64) AppleWebKit/537.36 (KHTML, like Gecko) Chrome/81.0.4200.0 Iron Safari/537.36",105,"[0.9, 0.5, 0.1]","[0.8, 0.4, 0.2]","[u'blue', u'red', u'black']","[u'left', u'middle', u'right']","[0.8, 0.4, 0.2]","[u'low', u'high', u'medium']","red",50,"middle","high","True","False",147,3900,NA
"A5BMKZRGHNSRT","Mon Oct 05 2020 10:20:38 GMT-0500 (Central Daylight Time)","Mon Oct 05 2020 10:25:43 GMT-0500 (Central Daylight Time)","Mozilla/5.0 (Windows NT 6.1; WOW64) AppleWebKit/537.36 (KHTML, like Gecko) Chrome/81.0.4200.0 Iron Safari/537.36",106,"[0.9, 0.5, 0.1]","[0.8, 0.4, 0.2]","[u'blue', u'red', u'black']","[u'left', u'middle', u'right']","[0.8, 0.4, 0.2]","[u'low', u'high', u'medium']","red",50,"middle","high","False","False",100,3850,NA
"A5BMKZRGHNSRT","Mon Oct 05 2020 10:20:38 GMT-0500 (Central Daylight Time)","Mon Oct 05 2020 10:25:43 GMT-0500 (Central Daylight Time)","Mozilla/5.0 (Windows NT 6.1; WOW64) AppleWebKit/537.36 (KHTML, like Gecko) Chrome/81.0.4200.0 Iron Safari/537.36",107,"[0.9, 0.5, 0.1]","[0.8, 0.4, 0.2]","[u'blue', u'red', u'black']","[u'left', u'middle', u'right']","[0.8, 0.4, 0.2]","[u'low', u'high', u'medium']","red",50,"middle","high","True","True",116,3950,NA
"A5BMKZRGHNSRT","Mon Oct 05 2020 10:20:38 GMT-0500 (Central Daylight Time)","Mon Oct 05 2020 10:25:43 GMT-0500 (Central Daylight Time)","Mozilla/5.0 (Windows NT 6.1; WOW64) AppleWebKit/537.36 (KHTML, like Gecko) Chrome/81.0.4200.0 Iron Safari/537.36",108,"[0.9, 0.5, 0.1]","[0.8, 0.4, 0.2]","[u'blue', u'red', u'black']","[u'left', u'middle', u'right']","[0.8, 0.4, 0.2]","[u'high', u'medium', u'low']","red",50,"middle","medium","True","False",101,4050,NA
"A5BMKZRGHNSRT","Mon Oct 05 2020 10:20:38 GMT-0500 (Central Daylight Time)","Mon Oct 05 2020 10:25:43 GMT-0500 (Central Daylight Time)","Mozilla/5.0 (Windows NT 6.1; WOW64) AppleWebKit/537.36 (KHTML, like Gecko) Chrome/81.0.4200.0 Iron Safari/537.36",109,"[0.9, 0.5, 0.1]","[0.8, 0.4, 0.2]","[u'blue', u'red', u'black']","[u'left', u'middle', u'right']","[0.8, 0.4, 0.2]","[u'high', u'medium', u'low']","red",50,"middle","medium","False","False",139,4000,NA
"A5BMKZRGHNSRT","Mon Oct 05 2020 10:20:38 GMT-0500 (Central Daylight Time)","Mon Oct 05 2020 10:25:43 GMT-0500 (Central Daylight Time)","Mozilla/5.0 (Windows NT 6.1; WOW64) AppleWebKit/537.36 (KHTML, like Gecko) Chrome/81.0.4200.0 Iron Safari/537.36",110,"[0.9, 0.5, 0.1]","[0.8, 0.4, 0.2]","[u'blue', u'red', u'black']","[u'left', u'middle', u'right']","[0.8, 0.4, 0.2]","[u'high', u'medium', u'low']","red",50,"middle","medium","True","False",116,4100,NA
"A5BMKZRGHNSRT","Mon Oct 05 2020 10:20:38 GMT-0500 (Central Daylight Time)","Mon Oct 05 2020 10:25:43 GMT-0500 (Central Daylight Time)","Mozilla/5.0 (Windows NT 6.1; WOW64) AppleWebKit/537.36 (KHTML, like Gecko) Chrome/81.0.4200.0 Iron Safari/537.36",111,"[0.9, 0.5, 0.1]","[0.8, 0.4, 0.2]","[u'blue', u'red', u'black']","[u'left', u'middle', u'right']","[0.8, 0.4, 0.2]","[u'high', u'medium', u'low']","red",50,"middle","medium","True","False",156,4200,NA
"A5BMKZRGHNSRT","Mon Oct 05 2020 10:20:38 GMT-0500 (Central Daylight Time)","Mon Oct 05 2020 10:25:43 GMT-0500 (Central Daylight Time)","Mozilla/5.0 (Windows NT 6.1; WOW64) AppleWebKit/537.36 (KHTML, like Gecko) Chrome/81.0.4200.0 Iron Safari/537.36",112,"[0.9, 0.5, 0.1]","[0.8, 0.4, 0.2]","[u'blue', u'red', u'black']","[u'left', u'middle', u'right']","[0.8, 0.4, 0.2]","[u'high', u'medium', u'low']","red",50,"middle","medium","True","False",122,4300,NA
"A5BMKZRGHNSRT","Mon Oct 05 2020 10:20:38 GMT-0500 (Central Daylight Time)","Mon Oct 05 2020 10:25:43 GMT-0500 (Central Daylight Time)","Mozilla/5.0 (Windows NT 6.1; WOW64) AppleWebKit/537.36 (KHTML, like Gecko) Chrome/81.0.4200.0 Iron Safari/537.36",113,"[0.9, 0.5, 0.1]","[0.8, 0.4, 0.2]","[u'blue', u'red', u'black']","[u'left', u'middle', u'right']","[0.8, 0.4, 0.2]","[u'high', u'medium', u'low']","red",50,"middle","medium","True","False",131,4400,NA
"A5BMKZRGHNSRT","Mon Oct 05 2020 10:20:38 GMT-0500 (Central Daylight Time)","Mon Oct 05 2020 10:25:43 GMT-0500 (Central Daylight Time)","Mozilla/5.0 (Windows NT 6.1; WOW64) AppleWebKit/537.36 (KHTML, like Gecko) Chrome/81.0.4200.0 Iron Safari/537.36",114,"[0.9, 0.5, 0.1]","[0.8, 0.4, 0.2]","[u'blue', u'red', u'black']","[u'left', u'middle', u'right']","[0.8, 0.4, 0.2]","[u'high', u'medium', u'low']","red",50,"middle","medium","False","False",251,4350,NA
"A5BMKZRGHNSRT","Mon Oct 05 2020 10:20:38 GMT-0500 (Central Daylight Time)","Mon Oct 05 2020 10:25:43 GMT-0500 (Central Daylight Time)","Mozilla/5.0 (Windows NT 6.1; WOW64) AppleWebKit/537.36 (KHTML, like Gecko) Chrome/81.0.4200.0 Iron Safari/537.36",115,"[0.9, 0.5, 0.1]","[0.8, 0.4, 0.2]","[u'blue', u'red', u'black']","[u'left', u'middle', u'right']","[0.8, 0.4, 0.2]","[u'high', u'medium', u'low']","red",50,"middle","medium","False","False",108,4300,NA
"A5BMKZRGHNSRT","Mon Oct 05 2020 10:20:38 GMT-0500 (Central Daylight Time)","Mon Oct 05 2020 10:25:43 GMT-0500 (Central Daylight Time)","Mozilla/5.0 (Windows NT 6.1; WOW64) AppleWebKit/537.36 (KHTML, like Gecko) Chrome/81.0.4200.0 Iron Safari/537.36",116,"[0.9, 0.5, 0.1]","[0.8, 0.4, 0.2]","[u'blue', u'red', u'black']","[u'left', u'middle', u'right']","[0.8, 0.4, 0.2]","[u'high', u'medium', u'low']","blue",49,"left","high","True","False",691,4400,NA
"A5BMKZRGHNSRT","Mon Oct 05 2020 10:20:38 GMT-0500 (Central Daylight Time)","Mon Oct 05 2020 10:25:43 GMT-0500 (Central Daylight Time)","Mozilla/5.0 (Windows NT 6.1; WOW64) AppleWebKit/537.36 (KHTML, like Gecko) Chrome/81.0.4200.0 Iron Safari/537.36",117,"[0.9, 0.5, 0.1]","[0.8, 0.4, 0.2]","[u'blue', u'red', u'black']","[u'left', u'middle', u'right']","[0.8, 0.4, 0.2]","[u'high', u'medium', u'low']","blue",49,"left","high","True","False",210,4500,NA
"A5BMKZRGHNSRT","Mon Oct 05 2020 10:20:38 GMT-0500 (Central Daylight Time)","Mon Oct 05 2020 10:25:43 GMT-0500 (Central Daylight Time)","Mozilla/5.0 (Windows NT 6.1; WOW64) AppleWebKit/537.36 (KHTML, like Gecko) Chrome/81.0.4200.0 Iron Safari/537.36",118,"[0.9, 0.5, 0.1]","[0.8, 0.4, 0.2]","[u'blue', u'red', u'black']","[u'left', u'middle', u'right']","[0.8, 0.4, 0.2]","[u'high', u'medium', u'low']","blue",49,"left","high","True","False",84,4600,NA
"A5BMKZRGHNSRT","Mon Oct 05 2020 10:20:38 GMT-0500 (Central Daylight Time)","Mon Oct 05 2020 10:25:43 GMT-0500 (Central Daylight Time)","Mozilla/5.0 (Windows NT 6.1; WOW64) AppleWebKit/537.36 (KHTML, like Gecko) Chrome/81.0.4200.0 Iron Safari/537.36",119,"[0.9, 0.5, 0.1]","[0.8, 0.4, 0.2]","[u'blue', u'red', u'black']","[u'left', u'middle', u'right']","[0.8, 0.4, 0.2]","[u'high', u'medium', u'low']","blue",49,"left","high","True","False",172,4700,NA
"A5BMKZRGHNSRT","Mon Oct 05 2020 10:20:38 GMT-0500 (Central Daylight Time)","Mon Oct 05 2020 10:25:43 GMT-0500 (Central Daylight Time)","Mozilla/5.0 (Windows NT 6.1; WOW64) AppleWebKit/537.36 (KHTML, like Gecko) Chrome/81.0.4200.0 Iron Safari/537.36",120,"[0.9, 0.5, 0.1]","[0.8, 0.4, 0.2]","[u'blue', u'red', u'black']","[u'left', u'middle', u'right']","[0.8, 0.4, 0.2]","[u'high', u'medium', u'low']","blue",49,"left","high","True","False",292,4800,NA
"A5BMKZRGHNSRT","Mon Oct 05 2020 10:20:38 GMT-0500 (Central Daylight Time)","Mon Oct 05 2020 10:25:43 GMT-0500 (Central Daylight Time)","Mozilla/5.0 (Windows NT 6.1; WOW64) AppleWebKit/537.36 (KHTML, like Gecko) Chrome/81.0.4200.0 Iron Safari/537.36",121,"[0.9, 0.5, 0.1]","[0.8, 0.4, 0.2]","[u'blue', u'red', u'black']","[u'left', u'middle', u'right']","[0.8, 0.4, 0.2]","[u'low', u'medium', u'high']","blue",49,"left","low","False","False",244,4750,NA
"A5BMKZRGHNSRT","Mon Oct 05 2020 10:20:38 GMT-0500 (Central Daylight Time)","Mon Oct 05 2020 10:25:43 GMT-0500 (Central Daylight Time)","Mozilla/5.0 (Windows NT 6.1; WOW64) AppleWebKit/537.36 (KHTML, like Gecko) Chrome/81.0.4200.0 Iron Safari/537.36",122,"[0.9, 0.5, 0.1]","[0.8, 0.4, 0.2]","[u'blue', u'red', u'black']","[u'left', u'middle', u'right']","[0.8, 0.4, 0.2]","[u'low', u'medium', u'high']","blue",49,"left","low","False","False",74,4700,NA
"A5BMKZRGHNSRT","Mon Oct 05 2020 10:20:38 GMT-0500 (Central Daylight Time)","Mon Oct 05 2020 10:25:43 GMT-0500 (Central Daylight Time)","Mozilla/5.0 (Windows NT 6.1; WOW64) AppleWebKit/537.36 (KHTML, like Gecko) Chrome/81.0.4200.0 Iron Safari/537.36",123,"[0.9, 0.5, 0.1]","[0.8, 0.4, 0.2]","[u'blue', u'red', u'black']","[u'left', u'middle', u'right']","[0.8, 0.4, 0.2]","[u'low', u'medium', u'high']","red",50,"middle","medium","False","False",43,4650,NA
"A5BMKZRGHNSRT","Mon Oct 05 2020 10:20:38 GMT-0500 (Central Daylight Time)","Mon Oct 05 2020 10:25:43 GMT-0500 (Central Daylight Time)","Mozilla/5.0 (Windows NT 6.1; WOW64) AppleWebKit/537.36 (KHTML, like Gecko) Chrome/81.0.4200.0 Iron Safari/537.36",124,"[0.9, 0.5, 0.1]","[0.8, 0.4, 0.2]","[u'blue', u'red', u'black']","[u'left', u'middle', u'right']","[0.8, 0.4, 0.2]","[u'low', u'medium', u'high']","red",50,"middle","medium","True","False",122,4750,NA
"A5BMKZRGHNSRT","Mon Oct 05 2020 10:20:38 GMT-0500 (Central Daylight Time)","Mon Oct 05 2020 10:25:43 GMT-0500 (Central Daylight Time)","Mozilla/5.0 (Windows NT 6.1; WOW64) AppleWebKit/537.36 (KHTML, like Gecko) Chrome/81.0.4200.0 Iron Safari/537.36",125,"[0.9, 0.5, 0.1]","[0.8, 0.4, 0.2]","[u'blue', u'red', u'black']","[u'left', u'middle', u'right']","[0.8, 0.4, 0.2]","[u'low', u'medium', u'high']","red",50,"middle","medium","True","False",355,4850,NA
"A5BMKZRGHNSRT","Mon Oct 05 2020 10:20:38 GMT-0500 (Central Daylight Time)","Mon Oct 05 2020 10:25:43 GMT-0500 (Central Daylight Time)","Mozilla/5.0 (Windows NT 6.1; WOW64) AppleWebKit/537.36 (KHTML, like Gecko) Chrome/81.0.4200.0 Iron Safari/537.36",126,"[0.9, 0.5, 0.1]","[0.8, 0.4, 0.2]","[u'blue', u'red', u'black']","[u'left', u'middle', u'right']","[0.8, 0.4, 0.2]","[u'low', u'medium', u'high']","red",50,"middle","medium","True","False",196,4950,NA
"A5BMKZRGHNSRT","Mon Oct 05 2020 10:20:38 GMT-0500 (Central Daylight Time)","Mon Oct 05 2020 10:25:43 GMT-0500 (Central Daylight Time)","Mozilla/5.0 (Windows NT 6.1; WOW64) AppleWebKit/537.36 (KHTML, like Gecko) Chrome/81.0.4200.0 Iron Safari/537.36",127,"[0.9, 0.5, 0.1]","[0.8, 0.4, 0.2]","[u'blue', u'red', u'black']","[u'left', u'middle', u'right']","[0.8, 0.4, 0.2]","[u'low', u'medium', u'high']","red",50,"middle","medium","False","False",66,4900,NA
"A5BMKZRGHNSRT","Mon Oct 05 2020 10:20:38 GMT-0500 (Central Daylight Time)","Mon Oct 05 2020 10:25:43 GMT-0500 (Central Daylight Time)","Mozilla/5.0 (Windows NT 6.1; WOW64) AppleWebKit/537.36 (KHTML, like Gecko) Chrome/81.0.4200.0 Iron Safari/537.36",128,"[0.9, 0.5, 0.1]","[0.8, 0.4, 0.2]","[u'blue', u'red', u'black']","[u'left', u'middle', u'right']","[0.8, 0.4, 0.2]","[u'low', u'medium', u'high']","red",50,"middle","medium","False","False",124,4850,NA
"A5BMKZRGHNSRT","Mon Oct 05 2020 10:20:38 GMT-0500 (Central Daylight Time)","Mon Oct 05 2020 10:25:43 GMT-0500 (Central Daylight Time)","Mozilla/5.0 (Windows NT 6.1; WOW64) AppleWebKit/537.36 (KHTML, like Gecko) Chrome/81.0.4200.0 Iron Safari/537.36",129,"[0.9, 0.5, 0.1]","[0.8, 0.4, 0.2]","[u'blue', u'red', u'black']","[u'left', u'middle', u'right']","[0.8, 0.4, 0.2]","[u'low', u'medium', u'high']","black",51,"right","high","True","False",91,4950,NA
"A5BMKZRGHNSRT","Mon Oct 05 2020 10:20:38 GMT-0500 (Central Daylight Time)","Mon Oct 05 2020 10:25:43 GMT-0500 (Central Daylight Time)","Mozilla/5.0 (Windows NT 6.1; WOW64) AppleWebKit/537.36 (KHTML, like Gecko) Chrome/81.0.4200.0 Iron Safari/537.36",130,"[0.9, 0.5, 0.1]","[0.8, 0.4, 0.2]","[u'blue', u'red', u'black']","[u'left', u'middle', u'right']","[0.8, 0.4, 0.2]","[u'low', u'medium', u'high']","black",51,"right","high","True","False",195,5050,NA
"A5BMKZRGHNSRT","Mon Oct 05 2020 10:20:38 GMT-0500 (Central Daylight Time)","Mon Oct 05 2020 10:25:43 GMT-0500 (Central Daylight Time)","Mozilla/5.0 (Windows NT 6.1; WOW64) AppleWebKit/537.36 (KHTML, like Gecko) Chrome/81.0.4200.0 Iron Safari/537.36",131,"[0.9, 0.5, 0.1]","[0.8, 0.4, 0.2]","[u'blue', u'red', u'black']","[u'left', u'middle', u'right']","[0.8, 0.4, 0.2]","[u'low', u'medium', u'high']","black",51,"right","high","True","False",307,5150,NA
"A5BMKZRGHNSRT","Mon Oct 05 2020 10:20:38 GMT-0500 (Central Daylight Time)","Mon Oct 05 2020 10:25:43 GMT-0500 (Central Daylight Time)","Mozilla/5.0 (Windows NT 6.1; WOW64) AppleWebKit/537.36 (KHTML, like Gecko) Chrome/81.0.4200.0 Iron Safari/537.36",132,"[0.9, 0.5, 0.1]","[0.8, 0.4, 0.2]","[u'blue', u'red', u'black']","[u'left', u'middle', u'right']","[0.8, 0.4, 0.2]","[u'low', u'medium', u'high']","black",51,"right","high","True","False",195,5250,NA
"A5BMKZRGHNSRT","Mon Oct 05 2020 10:20:38 GMT-0500 (Central Daylight Time)","Mon Oct 05 2020 10:25:43 GMT-0500 (Central Daylight Time)","Mozilla/5.0 (Windows NT 6.1; WOW64) AppleWebKit/537.36 (KHTML, like Gecko) Chrome/81.0.4200.0 Iron Safari/537.36",133,"[0.9, 0.5, 0.1]","[0.8, 0.4, 0.2]","[u'blue', u'red', u'black']","[u'left', u'middle', u'right']","[0.8, 0.4, 0.2]","[u'low', u'medium', u'high']","black",51,"right","high","True","False",187,5350,NA
"A5BMKZRGHNSRT","Mon Oct 05 2020 10:20:38 GMT-0500 (Central Daylight Time)","Mon Oct 05 2020 10:25:43 GMT-0500 (Central Daylight Time)","Mozilla/5.0 (Windows NT 6.1; WOW64) AppleWebKit/537.36 (KHTML, like Gecko) Chrome/81.0.4200.0 Iron Safari/537.36",134,"[0.9, 0.5, 0.1]","[0.8, 0.4, 0.2]","[u'blue', u'red', u'black']","[u'left', u'middle', u'right']","[0.8, 0.4, 0.2]","[u'low', u'medium', u'high']","black",51,"right","high","True","False",154,5450,NA
"A5BMKZRGHNSRT","Mon Oct 05 2020 10:20:38 GMT-0500 (Central Daylight Time)","Mon Oct 05 2020 10:25:43 GMT-0500 (Central Daylight Time)","Mozilla/5.0 (Windows NT 6.1; WOW64) AppleWebKit/537.36 (KHTML, like Gecko) Chrome/81.0.4200.0 Iron Safari/537.36",135,"[0.9, 0.5, 0.1]","[0.8, 0.4, 0.2]","[u'blue', u'red', u'black']","[u'left', u'middle', u'right']","[0.8, 0.4, 0.2]","[u'low', u'medium', u'high']","black",51,"right","high","True","False",50,5550,NA
"A5BMKZRGHNSRT","Mon Oct 05 2020 10:20:38 GMT-0500 (Central Daylight Time)","Mon Oct 05 2020 10:25:43 GMT-0500 (Central Daylight Time)","Mozilla/5.0 (Windows NT 6.1; WOW64) AppleWebKit/537.36 (KHTML, like Gecko) Chrome/81.0.4200.0 Iron Safari/537.36",136,"[0.9, 0.5, 0.1]","[0.8, 0.4, 0.2]","[u'blue', u'red', u'black']","[u'left', u'middle', u'right']","[0.8, 0.4, 0.2]","[u'low', u'medium', u'high']","black",51,"right","high","True","False",115,5650,NA
"A5BMKZRGHNSRT","Mon Oct 05 2020 10:20:38 GMT-0500 (Central Daylight Time)","Mon Oct 05 2020 10:25:43 GMT-0500 (Central Daylight Time)","Mozilla/5.0 (Windows NT 6.1; WOW64) AppleWebKit/537.36 (KHTML, like Gecko) Chrome/81.0.4200.0 Iron Safari/537.36",137,"[0.9, 0.5, 0.1]","[0.8, 0.4, 0.2]","[u'blue', u'red', u'black']","[u'left', u'middle', u'right']","[0.8, 0.4, 0.2]","[u'low', u'medium', u'high']","black",51,"right","high","True","True",115,5750,NA
"A5BMKZRGHNSRT","Mon Oct 05 2020 10:20:38 GMT-0500 (Central Daylight Time)","Mon Oct 05 2020 10:25:43 GMT-0500 (Central Daylight Time)","Mozilla/5.0 (Windows NT 6.1; WOW64) AppleWebKit/537.36 (KHTML, like Gecko) Chrome/81.0.4200.0 Iron Safari/537.36",138,"[0.9, 0.5, 0.1]","[0.8, 0.4, 0.2]","[u'blue', u'red', u'black']","[u'left', u'middle', u'right']","[0.8, 0.4, 0.2]","[u'high', u'medium', u'low']","black",51,"right","low","False","False",179,5700,NA
"A5BMKZRGHNSRT","Mon Oct 05 2020 10:20:38 GMT-0500 (Central Daylight Time)","Mon Oct 05 2020 10:25:43 GMT-0500 (Central Daylight Time)","Mozilla/5.0 (Windows NT 6.1; WOW64) AppleWebKit/537.36 (KHTML, like Gecko) Chrome/81.0.4200.0 Iron Safari/537.36",139,"[0.9, 0.5, 0.1]","[0.8, 0.4, 0.2]","[u'blue', u'red', u'black']","[u'left', u'middle', u'right']","[0.8, 0.4, 0.2]","[u'high', u'medium', u'low']","black",51,"right","low","False","False",163,5650,NA
"A5BMKZRGHNSRT","Mon Oct 05 2020 10:20:38 GMT-0500 (Central Daylight Time)","Mon Oct 05 2020 10:25:43 GMT-0500 (Central Daylight Time)","Mozilla/5.0 (Windows NT 6.1; WOW64) AppleWebKit/537.36 (KHTML, like Gecko) Chrome/81.0.4200.0 Iron Safari/537.36",140,"[0.9, 0.5, 0.1]","[0.8, 0.4, 0.2]","[u'blue', u'red', u'black']","[u'left', u'middle', u'right']","[0.8, 0.4, 0.2]","[u'high', u'medium', u'low']","red",50,"middle","medium","True","False",132,5750,NA
"A5BMKZRGHNSRT","Mon Oct 05 2020 10:20:38 GMT-0500 (Central Daylight Time)","Mon Oct 05 2020 10:25:43 GMT-0500 (Central Daylight Time)","Mozilla/5.0 (Windows NT 6.1; WOW64) AppleWebKit/537.36 (KHTML, like Gecko) Chrome/81.0.4200.0 Iron Safari/537.36",141,"[0.9, 0.5, 0.1]","[0.8, 0.4, 0.2]","[u'blue', u'red', u'black']","[u'left', u'middle', u'right']","[0.8, 0.4, 0.2]","[u'high', u'medium', u'low']","red",50,"middle","medium","False","False",170,5700,NA
"A5BMKZRGHNSRT","Mon Oct 05 2020 10:20:38 GMT-0500 (Central Daylight Time)","Mon Oct 05 2020 10:25:43 GMT-0500 (Central Daylight Time)","Mozilla/5.0 (Windows NT 6.1; WOW64) AppleWebKit/537.36 (KHTML, like Gecko) Chrome/81.0.4200.0 Iron Safari/537.36",142,"[0.9, 0.5, 0.1]","[0.8, 0.4, 0.2]","[u'blue', u'red', u'black']","[u'left', u'middle', u'right']","[0.8, 0.4, 0.2]","[u'high', u'medium', u'low']","red",50,"middle","medium","False","False",27,5650,NA
"A5BMKZRGHNSRT","Mon Oct 05 2020 10:20:38 GMT-0500 (Central Daylight Time)","Mon Oct 05 2020 10:25:43 GMT-0500 (Central Daylight Time)","Mozilla/5.0 (Windows NT 6.1; WOW64) AppleWebKit/537.36 (KHTML, like Gecko) Chrome/81.0.4200.0 Iron Safari/537.36",143,"[0.9, 0.5, 0.1]","[0.8, 0.4, 0.2]","[u'blue', u'red', u'black']","[u'left', u'middle', u'right']","[0.8, 0.4, 0.2]","[u'high', u'medium', u'low']","blue",49,"left","high","False","False",83,5600,NA
"A5BMKZRGHNSRT","Mon Oct 05 2020 10:20:38 GMT-0500 (Central Daylight Time)","Mon Oct 05 2020 10:25:43 GMT-0500 (Central Daylight Time)","Mozilla/5.0 (Windows NT 6.1; WOW64) AppleWebKit/537.36 (KHTML, like Gecko) Chrome/81.0.4200.0 Iron Safari/537.36",144,"[0.9, 0.5, 0.1]","[0.8, 0.4, 0.2]","[u'blue', u'red', u'black']","[u'left', u'middle', u'right']","[0.8, 0.4, 0.2]","[u'high', u'medium', u'low']","blue",49,"left","high","True","False",171,5700,NA
"A5BMKZRGHNSRT","Mon Oct 05 2020 10:20:38 GMT-0500 (Central Daylight Time)","Mon Oct 05 2020 10:25:43 GMT-0500 (Central Daylight Time)","Mozilla/5.0 (Windows NT 6.1; WOW64) AppleWebKit/537.36 (KHTML, like Gecko) Chrome/81.0.4200.0 Iron Safari/537.36",145,"[0.9, 0.5, 0.1]","[0.8, 0.4, 0.2]","[u'blue', u'red', u'black']","[u'left', u'middle', u'right']","[0.8, 0.4, 0.2]","[u'high', u'medium', u'low']","blue",49,"left","high","True","False",123,5800,NA
"A5BMKZRGHNSRT","Mon Oct 05 2020 10:20:38 GMT-0500 (Central Daylight Time)","Mon Oct 05 2020 10:25:43 GMT-0500 (Central Daylight Time)","Mozilla/5.0 (Windows NT 6.1; WOW64) AppleWebKit/537.36 (KHTML, like Gecko) Chrome/81.0.4200.0 Iron Safari/537.36",146,"[0.9, 0.5, 0.1]","[0.8, 0.4, 0.2]","[u'blue', u'red', u'black']","[u'left', u'middle', u'right']","[0.8, 0.4, 0.2]","[u'high', u'medium', u'low']","blue",49,"left","high","True","False",154,5900,NA
"A5BMKZRGHNSRT","Mon Oct 05 2020 10:20:38 GMT-0500 (Central Daylight Time)","Mon Oct 05 2020 10:25:43 GMT-0500 (Central Daylight Time)","Mozilla/5.0 (Windows NT 6.1; WOW64) AppleWebKit/537.36 (KHTML, like Gecko) Chrome/81.0.4200.0 Iron Safari/537.36",147,"[0.9, 0.5, 0.1]","[0.8, 0.4, 0.2]","[u'blue', u'red', u'black']","[u'left', u'middle', u'right']","[0.8, 0.4, 0.2]","[u'high', u'medium', u'low']","blue",49,"left","high","False","False",156,5850,NA
"A5BMKZRGHNSRT","Mon Oct 05 2020 10:20:38 GMT-0500 (Central Daylight Time)","Mon Oct 05 2020 10:25:43 GMT-0500 (Central Daylight Time)","Mozilla/5.0 (Windows NT 6.1; WOW64) AppleWebKit/537.36 (KHTML, like Gecko) Chrome/81.0.4200.0 Iron Safari/537.36",148,"[0.9, 0.5, 0.1]","[0.8, 0.4, 0.2]","[u'blue', u'red', u'black']","[u'left', u'middle', u'right']","[0.8, 0.4, 0.2]","[u'high', u'medium', u'low']","blue",49,"left","high","True","False",137,5950,NA
"A5BMKZRGHNSRT","Mon Oct 05 2020 10:20:38 GMT-0500 (Central Daylight Time)","Mon Oct 05 2020 10:25:43 GMT-0500 (Central Daylight Time)","Mozilla/5.0 (Windows NT 6.1; WOW64) AppleWebKit/537.36 (KHTML, like Gecko) Chrome/81.0.4200.0 Iron Safari/537.36",149,"[0.9, 0.5, 0.1]","[0.8, 0.4, 0.2]","[u'blue', u'red', u'black']","[u'left', u'middle', u'right']","[0.8, 0.4, 0.2]","[u'high', u'medium', u'low']","blue",49,"left","high","True","False",91,6050,NA
"A5BMKZRGHNSRT","Mon Oct 05 2020 10:20:38 GMT-0500 (Central Daylight Time)","Mon Oct 05 2020 10:25:43 GMT-0500 (Central Daylight Time)","Mozilla/5.0 (Windows NT 6.1; WOW64) AppleWebKit/537.36 (KHTML, like Gecko) Chrome/81.0.4200.0 Iron Safari/537.36",150,"[0.9, 0.5, 0.1]","[0.8, 0.4, 0.2]","[u'blue', u'red', u'black']","[u'left', u'middle', u'right']","[0.8, 0.4, 0.2]","[u'high', u'medium', u'low']","blue",49,"left","high","True","False",179,6150,NA
"A5BMKZRGHNSRT","Mon Oct 05 2020 10:20:38 GMT-0500 (Central Daylight Time)","Mon Oct 05 2020 10:25:43 GMT-0500 (Central Daylight Time)","Mozilla/5.0 (Windows NT 6.1; WOW64) AppleWebKit/537.36 (KHTML, like Gecko) Chrome/81.0.4200.0 Iron Safari/537.36",151,"[0.9, 0.5, 0.1]","[0.8, 0.4, 0.2]","[u'blue', u'red', u'black']","[u'left', u'middle', u'right']","[0.8, 0.4, 0.2]","[u'high', u'medium', u'low']","blue",49,"left","high","True","True",227,6250,NA
"A5BMKZRGHNSRT","Mon Oct 05 2020 10:20:38 GMT-0500 (Central Daylight Time)","Mon Oct 05 2020 10:25:43 GMT-0500 (Central Daylight Time)","Mozilla/5.0 (Windows NT 6.1; WOW64) AppleWebKit/537.36 (KHTML, like Gecko) Chrome/81.0.4200.0 Iron Safari/537.36",152,"[0.9, 0.5, 0.1]","[0.8, 0.4, 0.2]","[u'blue', u'red', u'black']","[u'left', u'middle', u'right']","[0.8, 0.4, 0.2]","[u'medium', u'low', u'high']","blue",49,"left","medium","True","False",27,6350,NA
"A5BMKZRGHNSRT","Mon Oct 05 2020 10:20:38 GMT-0500 (Central Daylight Time)","Mon Oct 05 2020 10:25:43 GMT-0500 (Central Daylight Time)","Mozilla/5.0 (Windows NT 6.1; WOW64) AppleWebKit/537.36 (KHTML, like Gecko) Chrome/81.0.4200.0 Iron Safari/537.36",153,"[0.9, 0.5, 0.1]","[0.8, 0.4, 0.2]","[u'blue', u'red', u'black']","[u'left', u'middle', u'right']","[0.8, 0.4, 0.2]","[u'medium', u'low', u'high']","blue",49,"left","medium","False","False",107,6300,NA
"A5BMKZRGHNSRT","Mon Oct 05 2020 10:20:38 GMT-0500 (Central Daylight Time)","Mon Oct 05 2020 10:25:43 GMT-0500 (Central Daylight Time)","Mozilla/5.0 (Windows NT 6.1; WOW64) AppleWebKit/537.36 (KHTML, like Gecko) Chrome/81.0.4200.0 Iron Safari/537.36",154,"[0.9, 0.5, 0.1]","[0.8, 0.4, 0.2]","[u'blue', u'red', u'black']","[u'left', u'middle', u'right']","[0.8, 0.4, 0.2]","[u'medium', u'low', u'high']","blue",49,"left","medium","True","False",596,6400,NA
"A5BMKZRGHNSRT","Mon Oct 05 2020 10:20:38 GMT-0500 (Central Daylight Time)","Mon Oct 05 2020 10:25:43 GMT-0500 (Central Daylight Time)","Mozilla/5.0 (Windows NT 6.1; WOW64) AppleWebKit/537.36 (KHTML, like Gecko) Chrome/81.0.4200.0 Iron Safari/537.36",155,"[0.9, 0.5, 0.1]","[0.8, 0.4, 0.2]","[u'blue', u'red', u'black']","[u'left', u'middle', u'right']","[0.8, 0.4, 0.2]","[u'medium', u'low', u'high']","blue",49,"left","medium","True","False",138,6500,NA
"A5BMKZRGHNSRT","Mon Oct 05 2020 10:20:38 GMT-0500 (Central Daylight Time)","Mon Oct 05 2020 10:25:43 GMT-0500 (Central Daylight Time)","Mozilla/5.0 (Windows NT 6.1; WOW64) AppleWebKit/537.36 (KHTML, like Gecko) Chrome/81.0.4200.0 Iron Safari/537.36",156,"[0.9, 0.5, 0.1]","[0.8, 0.4, 0.2]","[u'blue', u'red', u'black']","[u'left', u'middle', u'right']","[0.8, 0.4, 0.2]","[u'medium', u'low', u'high']","blue",49,"left","medium","True","False",147,6600,NA
"A5BMKZRGHNSRT","Mon Oct 05 2020 10:20:38 GMT-0500 (Central Daylight Time)","Mon Oct 05 2020 10:25:43 GMT-0500 (Central Daylight Time)","Mozilla/5.0 (Windows NT 6.1; WOW64) AppleWebKit/537.36 (KHTML, like Gecko) Chrome/81.0.4200.0 Iron Safari/537.36",157,"[0.9, 0.5, 0.1]","[0.8, 0.4, 0.2]","[u'blue', u'red', u'black']","[u'left', u'middle', u'right']","[0.8, 0.4, 0.2]","[u'medium', u'low', u'high']","blue",49,"left","medium","True","False",130,6700,NA
"A5BMKZRGHNSRT","Mon Oct 05 2020 10:20:38 GMT-0500 (Central Daylight Time)","Mon Oct 05 2020 10:25:43 GMT-0500 (Central Daylight Time)","Mozilla/5.0 (Windows NT 6.1; WOW64) AppleWebKit/537.36 (KHTML, like Gecko) Chrome/81.0.4200.0 Iron Safari/537.36",158,"[0.9, 0.5, 0.1]","[0.8, 0.4, 0.2]","[u'blue', u'red', u'black']","[u'left', u'middle', u'right']","[0.8, 0.4, 0.2]","[u'medium', u'low', u'high']","blue",49,"left","medium","False","False",139,6650,NA
"A5BMKZRGHNSRT","Mon Oct 05 2020 10:20:38 GMT-0500 (Central Daylight Time)","Mon Oct 05 2020 10:25:43 GMT-0500 (Central Daylight Time)","Mozilla/5.0 (Windows NT 6.1; WOW64) AppleWebKit/537.36 (KHTML, like Gecko) Chrome/81.0.4200.0 Iron Safari/537.36",159,"[0.9, 0.5, 0.1]","[0.8, 0.4, 0.2]","[u'blue', u'red', u'black']","[u'left', u'middle', u'right']","[0.8, 0.4, 0.2]","[u'medium', u'low', u'high']","red",50,"middle","low","False","False",90,6600,NA
"A5BMKZRGHNSRT","Mon Oct 05 2020 10:20:38 GMT-0500 (Central Daylight Time)","Mon Oct 05 2020 10:25:43 GMT-0500 (Central Daylight Time)","Mozilla/5.0 (Windows NT 6.1; WOW64) AppleWebKit/537.36 (KHTML, like Gecko) Chrome/81.0.4200.0 Iron Safari/537.36",160,"[0.9, 0.5, 0.1]","[0.8, 0.4, 0.2]","[u'blue', u'red', u'black']","[u'left', u'middle', u'right']","[0.8, 0.4, 0.2]","[u'medium', u'low', u'high']","red",50,"middle","low","False","False",83,6550,NA
